SensorId, TimeStamp (s), FrameNumber, AccX (g), AccY (g), AccZ (g), GyroX (deg/s), GyroY (deg/s), GyroZ (deg/s), MagX (uT), MagY (uT), MagZ (uT), EulerX (deg), EulerY (deg), EulerZ (deg), QuatW, QuatX, QuatY, QuatZ, LinAccX (g), LinAccY (g), LinAccZ (g), Pressure (kPa), Altitude (m), Temperature (degC), HeaveMotion (m)
1, -0.0000, 0, -0.10135935, -0.15660547, -0.99629319, 1.99293387, -1.14184022, -0.01691600, -23.59826279, -7.92327309, -19.37044907, 7.37773466, -2.91114807, -103.34056854, -0.61998361, 0.02000362, -0.06617548, -0.78156316, 0.05005935, 0.02877229, 0.00582551, 97.63400269, 311.88000488, 0.00000000, 0.00000000
1, 0.0200, 1, -0.09974951, -0.15843964, -0.98212612, 1.52787650, -2.65151882, 0.28703505, -23.62726593, -7.27019835, -20.31054306, 7.40873957, -2.96300292, -103.33908844, -0.62000400, 0.01981764, -0.06666606, -0.78151000, 0.04849377, 0.02992280, -0.00825571, 97.63400269, 311.88000488, 0.00000000, 0.00000000
1, 0.0400, 2, -0.09735406, -0.15458718, -0.98733389, 2.97360229, -1.44583011, 2.21530724, -23.36620331, -7.41217136, -19.82533455, 7.45752668, -2.92467880, -103.29828644, -0.62026209, 0.02036744, -0.06678507, -0.78128105, 0.04536276, 0.02535804, -0.00291694, 97.63400269, 311.88000488, 0.00000000, 0.00000000
1, 0.0600, 3, -0.11180007, -0.14878625, -0.99435145, 3.23509502, -1.33247304, 2.24651527, -24.00435066, -8.88868713, -19.43110275, 7.52191162, -2.95771432, -103.25824738, -0.62053365, 0.02051367, -0.06739492, -0.78100908, 0.06049195, 0.01863737, 0.00418540, 97.63400269, 311.88000488, 0.00000000, 0.00000000
1, 0.0800, 4, -0.11533951, -0.14921181, -0.99930573, 4.49588299, -1.49281275, 0.94217443, -23.19216728, -7.27019835, -19.70402908, 7.61101627, -2.99106026, -103.24544525, -0.62061518, 0.02077592, -0.06817966, -0.78086919, 0.06346890, 0.01773466, 0.00934459, 97.63400269, 311.88000488, 0.00000000, 0.00000000
1, 0.1000, 5, -0.11501732, -0.15169284, -0.99330866, 5.13322783, -2.60784745, -0.61528409, -23.71428490, -8.71831989, -19.85565758, 7.70500660, -2.97814631, -103.26473999, -0.62046236, 0.02136161, -0.06875408, -0.78092444, 0.06302301, 0.01867434, 0.00356004, 97.63400269, 311.88000488, 0.00000000, 0.00000000
1, 0.1200, 6, -0.11022083, -0.15614770, -0.99283671, 5.34831858, -3.40078855, -1.13074458, -23.74329567, -7.95166731, -19.09751511, 7.81309032, -3.04684353, -103.29689789, -0.62024504, 0.02145778, -0.06986694, -0.78099579, 0.05777631, 0.02131601, 0.00335716, 97.63400269, 311.88000488, 0.00000000, 0.00000000
1, 0.1400, 7, -0.10864413, -0.16247837, -0.99691784, 5.76242399, -5.54428959, -0.64059329, -23.45322990, -7.27019835, -19.64337540, 7.92869568, -3.10638547, -103.32272339, -0.62006664, 0.02166055, -0.07098045, -0.78103143, 0.05456541, 0.02578755, 0.00778155, 97.63400269, 311.88000488, 0.00000000, 0.00000000
1, 0.1600, 8, -0.10754767, -0.16817899, -1.00273871, 7.78339100, -5.38490057, -0.11701801, -23.33720016, -7.72451162, -19.61305237, 8.08563614, -3.21209788, -103.33831024, -0.61996537, 0.02177725, -0.07262221, -0.78095758, 0.05242611, 0.02910888, 0.01399189, 97.63400269, 311.88000488, 0.00000000, 0.00000000
1, 0.1800, 9, -0.11172450, -0.16947180, -1.00469935, 9.63377190, -6.88011551, 1.17545927, -23.16316032, -8.15042877, -18.76393509, 8.28147125, -3.35127091, -103.33597565, -0.61999047, 0.02188685, -0.07470531, -0.78073817, 0.05451515, 0.02744063, 0.01649233, 97.63400269, 311.88000488, 0.00000000, 0.00000000
1, 0.2000, 10, -0.11419640, -0.17213637, -0.98993564, 12.87029266, -5.18991184, 0.71115720, -23.36620331, -8.32079601, -19.61305237, 8.53888226, -3.41318917, -103.33919525, -0.61993951, 0.02285412, -0.07679269, -0.78054839, 0.05513151, 0.02627551, 0.00239589, 97.63400269, 311.88000488, 0.00000000, 0.00000000
1, 0.2200, 11, -0.11479281, -0.17348814, -0.99080986, 16.39054871, -2.38093781, 1.82100320, -23.27919006, -8.32079601, -19.27947426, 8.86524868, -3.46844649, -103.31063843, -0.62008655, 0.02426176, -0.07930654, -0.78013748, 0.05480422, 0.02250601, 0.00409626, 97.63400269, 311.88000488, 0.00000000, 0.00000000
1, 0.2400, 12, -0.12195660, -0.17395358, -0.98341429, 15.97851276, -4.66605902, 1.55314445, -23.25018311, -9.05905437, -18.52133179, 9.17586899, -3.54042554, -103.29956055, -0.62012142, 0.02545864, -0.08180553, -0.77981353, 0.06065644, 0.01738190, -0.00234710, 97.63400269, 311.88000488, 0.00000000, 0.00000000
1, 0.2600, 13, -0.12592711, -0.18199255, -0.97433025, 13.37707901, -8.89450932, 1.40566194, -22.81508255, -9.39978790, -18.76393509, 9.44025421, -3.72441554, -103.30145264, -0.62012023, 0.02563103, -0.08459400, -0.77951133, 0.06270228, 0.02048281, -0.01051252, 97.63400269, 311.88000488, 0.00000000, 0.00000000
1, 0.2800, 14, -0.13077261, -0.18200289, -0.97087562, 11.36475754, -10.27784538, 0.37948060, -23.01813126, -7.83808899, -18.97621727, 9.67037106, -3.92602229, -103.32852936, -0.61996329, 0.02547851, -0.08724844, -0.77934849, 0.06400629, 0.01637557, -0.01304926, 97.63400269, 311.88000488, 0.00000000, 0.00000000
1, 0.3000, 15, -0.13156871, -0.18582599, -0.97529399, 13.42901611, -7.89843941, -0.76985765, -23.07614136, -9.20102692, -18.30904961, 9.93867111, -4.04008722, -103.37344360, -0.61964273, 0.02611561, -0.08969556, -0.77930450, 0.06198211, 0.01607135, -0.00773175, 97.63400269, 311.88000488, 0.00000000, 0.00000000
1, 0.3200, 16, -0.13641436, -0.19421020, -0.98756856, 18.62164879, -2.04906011, -1.70516050, -22.61203575, -7.78130007, -19.37044907, 10.32134724, -4.06986332, -103.41420746, -0.61928761, 0.02794840, -0.09246716, -0.77919930, 0.06553688, 0.01898034, 0.00559703, 97.63400269, 311.88000488, 0.00000000, 0.00000000
1, 0.3400, 17, -0.13272125, -0.20383117, -0.98973268, 22.55484009, -1.07503390, -1.39953244, -22.98912430, -8.49116325, -19.79500389, 10.76879501, -4.05842543, -103.44614410, -0.61895150, 0.03041787, -0.09545620, -0.77901345, 0.06165615, 0.02125278, 0.00911507, 97.63400269, 311.88000488, 0.00000000, 0.00000000
1, 0.3600, 18, -0.13337679, -0.20869064, -0.97843766, 22.65878868, -2.53639722, -2.22176313, -22.32197380, -9.74052238, -18.82458878, 11.22645092, -4.10241652, -103.50107574, -0.61847281, 0.03254167, -0.09881774, -0.77888864, 0.06228520, 0.01842797, -0.00071618, 97.63400269, 311.88000488, 0.00000000, 0.00000000
1, 0.3800, 19, -0.13090256, -0.21399058, -0.95924675, 21.61102486, -5.50766134, -3.41423368, -22.06091118, -8.17882347, -19.91630936, 11.65937233, -4.19844723, -103.59244537, -0.61777270, 0.03414025, -0.10230024, -0.77892613, 0.05859700, 0.01599775, -0.01828435, 97.63400269, 311.88000488, 0.00000000, 0.00000000
1, 0.4000, 20, -0.12996013, -0.22142208, -0.94328249, 17.75293350, -5.16685772, -4.84010363, -22.58303261, -9.82570553, -18.49100113, 12.01925087, -4.24528694, -103.70530701, -0.61691970, 0.03565658, -0.10503115, -0.77917087, 0.05621102, 0.01677449, -0.03276980, 97.63400269, 311.88000488, 0.00000000, 0.00000000
1, 0.4200, 21, -0.12719814, -0.22837240, -0.94986922, 20.55543900, 4.13015985, -4.79913521, -22.17694092, -9.85410023, -18.21807480, 12.44684029, -4.12733650, -103.77760315, -0.61622620, 0.03869729, -0.10733384, -0.77926069, 0.05374666, 0.01730791, -0.02483747, 97.63400269, 311.88000488, 0.00000000, 0.00000000
1, 0.4400, 22, -0.12309707, -0.23969905, -0.96779889, 28.02803040, 15.16848660, -3.97175384, -22.26395798, -9.42818260, -19.37044907, 13.00940704, -3.79201865, -103.78584290, -0.61577415, 0.04400745, -0.10937702, -0.77905214, 0.05372685, 0.02000821, -0.00529700, 97.63400269, 311.88000488, 0.00000000, 0.00000000
1, 0.4600, 23, -0.12222775, -0.25448665, -0.97866446, 30.49226761, 16.78742790, -2.85198712, -22.11892509, -9.74052238, -19.15816689, 13.61482716, -3.46300006, -103.76503754, -0.61546248, 0.04952927, -0.11173237, -0.77863264, 0.05913552, 0.02466862, 0.00748274, 97.63400269, 311.88000488, 0.00000000, 0.00000000
1, 0.4800, 24, -0.11868470, -0.26416582, -0.96765399, 27.71909714, 8.93387699, -2.63853884, -22.14793396, -10.70593643, -18.55165291, 14.16648960, -3.28335834, -103.77663422, -0.61501437, 0.05370696, -0.11452955, -0.77830327, 0.06003530, 0.02442424, -0.00140623, 97.63400269, 311.88000488, 0.00000000, 0.00000000
1, 0.5000, 25, -0.11754289, -0.27393878, -0.95103818, 25.67238045, 6.50509310, -4.16840124, -21.01667595, -9.79731178, -19.52207756, 14.68124390, -3.11354756, -103.82682800, -0.61430252, 0.05757700, -0.11714721, -0.77819920, 0.06171660, 0.02524886, -0.01593196, 97.63400269, 311.88000488, 0.00000000, 0.00000000
1, 0.5200, 26, -0.10386591, -0.28206804, -0.95002741, 25.98900414, 8.40067196, -3.99642205, -21.27773476, -10.39359665, -18.64262962, 15.20194530, -2.92824435, -103.85898590, -0.61367399, 0.06159880, -0.11971544, -0.77799618, 0.05110458, 0.02456075, -0.01480441, 97.63400269, 311.88000488, 0.00000000, 0.00000000
1, 0.5400, 27, -0.10330836, -0.28910309, -0.95520204, 26.88110924, 10.25500870, -2.98203421, -21.24872780, -11.87011147, -19.18849754, 15.73479462, -2.69659495, -103.86504364, -0.61315233, 0.06602541, -0.12210620, -0.77767283, 0.05411319, 0.02272831, -0.00740785, 97.63400269, 311.88000488, 0.00000000, 0.00000000
1, 0.5600, 28, -0.10112173, -0.29551676, -0.94425607, 24.86119080, 6.96069288, -2.18279147, -20.61058426, -10.90469837, -19.09751511, 16.22782516, -2.55521798, -103.86893463, -0.61271632, 0.06962244, -0.12470362, -0.77729040, 0.05542862, 0.02037579, -0.01605881, 97.63400269, 311.88000488, 0.00000000, 0.00000000
1, 0.5800, 29, -0.10180238, -0.30363277, -0.93177956, 21.52800179, 3.38808513, -0.87191725, -21.21972466, -10.53556919, -18.97621727, 16.65213966, -2.48764491, -103.86813354, -0.61240053, 0.07235207, -0.12722227, -0.77688187, 0.05790434, 0.02075740, -0.02637015, 97.63400269, 311.88000488, 0.00000000, 0.00000000
1, 0.6000, 30, -0.10470195, -0.30910918, -0.92617393, 17.34601402, 2.15161777, -1.38433278, -21.33575058, -11.50098324, -18.70328140, 16.99379349, -2.40179873, -103.88618469, -0.61198235, 0.07474193, -0.12909485, -0.77667612, 0.06205777, 0.01990651, -0.03014251, 97.63400269, 311.88000488, 0.00000000, 0.00000000
1, 0.6200, 31, -0.10232578, -0.31523630, -0.93231356, 16.78355026, 4.86020470, -2.45105886, -20.49456024, -11.13185406, -19.40077209, 17.33246040, -2.28743529, -103.90348053, -0.61153561, 0.07730913, -0.13079575, -0.77649212, 0.06123244, 0.02040202, -0.02234959, 97.63400269, 311.88000488, 0.00000000, 0.00000000
1, 0.6400, 32, -0.09908002, -0.32021546, -0.94537473, 20.58835983, 10.75861740, -3.26504302, -20.66860008, -11.67135048, -19.40077209, 17.74567604, -2.03708625, -103.90059662, -0.61103225, 0.08122060, -0.13226771, -0.77623975, 0.06100572, 0.01922600, -0.00749003, 97.63400269, 311.88000488, 0.00000000, 0.00000000
1, 0.6600, 33, -0.09670337, -0.32660306, -0.95151776, 24.83042908, 14.26506233, -3.33298421, -20.58157730, -11.72813892, -18.91556358, 18.24320030, -1.74603391, -103.87452698, -0.61055881, 0.08588192, -0.13407694, -0.77580005, 0.06367884, 0.01791024, 0.00093285, 97.63400269, 311.88000488, 0.00000000, 0.00000000
1, 0.6800, 34, -0.09174018, -0.33615744, -0.95126832, 24.44935417, 11.72159290, -2.36407089, -20.69760323, -11.44419384, -19.94663239, 18.72824669, -1.51433647, -103.84600067, -0.61014134, 0.09007286, -0.13611096, -0.77529883, 0.06346388, 0.01913731, 0.00327401, 97.63400269, 311.88000488, 0.00000000, 0.00000000
1, 0.7000, 35, -0.09704739, -0.34458306, -0.93287694, 21.37853622, 7.06818581, -2.63343620, -20.14647865, -12.06887341, -19.34011841, 19.15214348, -1.33864379, -103.85087585, -0.60958183, 0.09351537, -0.13805218, -0.77498806, 0.07216416, 0.02009305, -0.01268271, 97.63400269, 311.88000488, 0.00000000, 0.00000000
1, 0.7200, 36, -0.08738369, -0.34982976, -0.92963171, 22.48099518, 8.81628990, -4.16484451, -20.46555138, -12.75034237, -19.52207756, 19.60379601, -1.14054227, -103.87095642, -0.60885245, 0.09723561, -0.14007470, -0.77474064, 0.06564520, 0.01815910, -0.01351060, 97.63400269, 311.88000488, 0.00000000, 0.00000000
1, 0.7400, 37, -0.07363676, -0.35970554, -0.92969173, 24.40532303, 12.44755650, -5.09590054, -19.82740974, -12.06887341, -19.18849754, 20.08984947, -0.84923470, -103.88211060, -0.60802352, 0.10177653, -0.14182925, -0.77448916, 0.05599695, 0.02026760, -0.01076812, 97.63400269, 311.88000488, 0.00000000, 0.00000000
1, 0.7600, 38, -0.06452148, -0.37384778, -0.92771453, 25.52157593, 13.42943001, -3.71845508, -19.53734398, -12.29603004, -20.12859154, 20.60059357, -0.57317358, -103.85633850, -0.60740781, 0.10638576, -0.14379680, -0.77398986, 0.05212248, 0.02622893, -0.00983599, 97.63400269, 311.88000488, 0.00000000, 0.00000000
1, 0.7800, 39, -0.05933307, -0.38489324, -0.92376196, 23.98072433, 10.35116005, -1.42909801, -19.56635094, -13.03428745, -18.52133179, 21.07507515, -0.37577161, -103.80921936, -0.60703647, 0.11029398, -0.14591171, -0.77333808, 0.05125060, 0.02905186, -0.01074676, 97.63400269, 311.88000488, 0.00000000, 0.00000000
1, 0.8000, 40, -0.06200949, -0.38702914, -0.91769373, 21.73312569, 8.80501270, -0.54607362, -19.68237686, -13.09107685, -18.79425812, 21.50731087, -0.17999719, -103.75785828, -0.60671419, 0.11397053, -0.14774166, -0.77271020, 0.05715060, 0.02394595, -0.01404800, 97.63400269, 311.88000488, 0.00000000, 0.00000000
1, 0.8200, 41, -0.06058697, -0.39180654, -0.92516255, 23.87051964, 12.34986591, -1.17684686, -19.65336990, -12.72194672, -18.94588661, 21.99018478, 0.06551434, -103.68543243, -0.60639572, 0.11827539, -0.14962353, -0.77195084, 0.05938462, 0.02138924, -0.00369911, 97.63400269, 311.88000488, 0.00000000, 0.00000000
1, 0.8400, 42, -0.05573127, -0.40171784, -0.93664289, 29.58953857, 18.80415916, -1.52677131, -19.39231110, -13.46020508, -18.76393509, 22.58696938, 0.44658372, -103.56953430, -0.60603499, 0.12414847, -0.15150037, -0.77094519, 0.05987375, 0.02264884, 0.01128886, 97.63400269, 311.88000488, 0.00000000, 0.00000000
1, 0.8600, 43, -0.05056691, -0.41019699, -0.93861604, 35.66027069, 23.23345375, -1.40001845, -18.98621941, -14.79474831, -19.52207756, 23.30996513, 0.88962388, -103.41263580, -0.60566658, 0.13115257, -0.15383607, -0.76961118, 0.06210349, 0.02050743, 0.01774947, 97.63400269, 311.88000488, 0.00000000, 0.00000000
1, 0.8800, 44, -0.04882731, -0.42163938, -0.93327427, 40.21522903, 23.97789192, -1.49060738, -18.55112076, -14.08488464, -19.30979538, 24.11644554, 1.33509970, -103.24898529, -0.60516596, 0.13861457, -0.15668887, -0.76812029, 0.06836797, 0.01956202, 0.01788605, 97.63400269, 311.88000488, 0.00000000, 0.00000000
1, 0.9000, 45, -0.04026691, -0.43423748, -0.91226608, 39.07175064, 18.95502663, -1.24949586, -18.49310493, -15.56139946, -19.37044907, 24.89504433, 1.69931901, -103.11865234, -0.60452008, 0.14533234, -0.15980528, -0.76674390, 0.06691135, 0.01955950, 0.00269579, 97.63400269, 311.88000488, 0.00000000, 0.00000000
1, 0.9200, 46, -0.03481301, -0.44479454, -0.88562566, 36.73346710, 15.47689533, -1.62395406, -18.34807587, -15.33424377, -20.03761673, 25.63102150, 1.99310684, -103.01610565, -0.60378909, 0.15130998, -0.16302992, -0.76548368, 0.06706035, 0.01819043, -0.01823117, 97.63400269, 311.88000488, 0.00000000, 0.00000000
1, 0.9400, 47, -0.02590913, -0.45375937, -0.87012714, 35.24988174, 16.62919807, -1.90647507, -17.85496140, -14.79474831, -19.79500389, 26.33921432, 2.32984495, -102.90348816, -0.60303628, 0.15743287, -0.16581249, -0.76424366, 0.06336145, 0.01591780, -0.02813822, 97.63400269, 311.88000488, 0.00000000, 0.00000000
1, 0.9600, 48, -0.02008667, -0.46357161, -0.86998498, 37.58437347, 22.69484520, -2.67182159, -17.79695129, -15.61818886, -19.40077209, 27.10198975, 2.76520252, -102.74493408, -0.60228384, 0.16455211, -0.16835187, -0.76278085, 0.06435291, 0.01448119, -0.02239592, 97.63400269, 311.88000488, 0.00000000, 0.00000000
1, 0.9800, 49, -0.00698510, -0.47984082, -0.88354778, 39.40991592, 25.29954910, -2.75651383, -17.36185265, -16.66878700, -18.97621727, 27.89937592, 3.23553205, -102.56068420, -0.60151106, 0.17210867, -0.17087303, -0.76116067, 0.05941028, 0.01872340, -0.00223208, 97.63400269, 311.88000488, 0.00000000, 0.00000000
1, 1.0000, 50, -0.00383934, -0.49384120, -0.88402134, 36.46012878, 19.08543015, -2.01891255, -17.41986275, -15.76016140, -19.21882057, 28.62896347, 3.59661484, -102.41968536, -0.60067379, 0.17851514, -0.17356911, -0.75973493, 0.06368829, 0.02102948, 0.00489989, 97.63400269, 311.88000488, 0.00000000, 0.00000000
1, 1.0200, 51, -0.00174795, -0.50198841, -0.86560124, 34.18870163, 14.23485756, -1.03989291, -17.10079384, -17.12309837, -19.67370605, 29.32027054, 3.85609651, -102.30073547, -0.59988236, 0.18401393, -0.17657213, -0.75835502, 0.06676116, 0.01858988, -0.00737571, 97.63400269, 311.88000488, 0.00000000, 0.00000000
1, 1.0400, 52, -0.00247071, -0.50939131, -0.84406418, 34.20714569, 15.23037529, -1.96584249, -17.15880394, -16.49841881, -18.94588661, 30.00976753, 4.15681553, -102.18618011, -0.59893703, 0.18975744, -0.17933479, -0.75703746, 0.07215296, 0.01564421, -0.02273890, 97.63400269, 311.88000488, 0.00000000, 0.00000000
1, 1.0600, 53, 0.00500667, -0.52011377, -0.82612586, 33.44994736, 17.40861511, -3.08393908, -16.28861046, -16.52681351, -19.21882057, 30.68467712, 4.49151707, -102.06186676, -0.59796154, 0.19565104, -0.18178774, -0.75572211, 0.07027937, 0.01625582, -0.03436724, 97.63400269, 311.88000488, 0.00000000, 0.00000000
1, 1.0800, 54, 0.01436504, -0.52796584, -0.82663631, 30.22332001, 18.02746582, -3.59401751, -16.83973503, -17.12309837, -19.27947426, 31.29587555, 4.83729935, -101.93812561, -0.59701788, 0.20127252, -0.18374708, -0.75451702, 0.06696584, 0.01468907, -0.02771899, 97.63400269, 311.88000488, 0.00000000, 0.00000000
1, 1.1000, 55, 0.02931536, -0.54512846, -0.83832151, 28.55806541, 16.79847908, -2.61552429, -16.28861046, -17.86135674, -18.97621727, 31.87250900, 5.16363525, -101.81095123, -0.59615201, 0.20658398, -0.18556306, -0.75332093, 0.05800885, 0.02333122, -0.01026179, 97.63400269, 311.88000488, 0.00000000, 0.00000000
1, 1.1200, 56, 0.03560445, -0.55256325, -0.83888227, 27.14259911, 13.65246201, -1.50089324, -16.20158958, -17.40704536, -18.94588661, 32.42786026, 5.41099167, -101.68963623, -0.59541279, 0.21125890, -0.18766090, -0.75208831, 0.05656243, 0.02271120, -0.00418077, 97.63400269, 311.88000488, 0.00000000, 0.00000000
1, 1.1400, 57, 0.04196117, -0.56020749, -0.82952023, 28.21494102, 14.33516502, -1.08830178, -16.05655479, -17.37864876, -19.21882057, 33.00280762, 5.68408346, -101.55419922, -0.59463894, 0.21621712, -0.18971007, -0.75077611, 0.05454363, 0.02225231, -0.00790651, 97.63400269, 311.88000488, 0.00000000, 0.00000000
1, 1.1600, 58, 0.03770599, -0.56746590, -0.81584835, 27.83470154, 13.99113750, -0.89050126, -15.85351181, -18.45764160, -18.82458878, 33.57131958, 5.92843485, -101.41552734, -0.59392446, 0.22095670, -0.19185179, -0.74941635, 0.06343351, 0.02141955, -0.01577473, 97.63400269, 311.88000488, 0.00000000, 0.00000000
1, 1.1800, 59, 0.03867944, -0.57149154, -0.80455834, 25.58833313, 13.30093956, -1.34606469, -15.50543118, -18.03172302, -18.94588661, 34.09389877, 6.16503525, -101.28992462, -0.59319729, 0.22538079, -0.19374745, -0.74818605, 0.06666567, 0.01776456, -0.02144569, 97.63400269, 311.88000488, 0.00000000, 0.00000000
1, 1.2000, 60, 0.04835446, -0.58365399, -0.80183864, 23.75194931, 12.08933544, -0.85008079, -15.82450485, -18.96874237, -19.58273125, 34.57404709, 6.39133167, -101.17183685, -0.59249938, 0.22950131, -0.19542551, -0.74704921, 0.06117772, 0.02293428, -0.01888700, 97.63400269, 311.88000488, 0.00000000, 0.00000000
1, 1.2200, 61, 0.04623606, -0.58650547, -0.79712451, 20.75430298, 9.96479034, -0.31998923, -15.70847893, -19.62181854, -18.36970329, 35.00338364, 6.56094790, -101.06126404, -0.59196144, 0.23298277, -0.19708407, -0.74596149, 0.06649315, 0.01962618, -0.01892454, 97.63400269, 311.88000488, 0.00000000, 0.00000000
1, 1.2400, 62, 0.04968684, -0.59368092, -0.79689854, 21.61972046, 12.42583942, -0.19924141, -15.70847893, -18.68479919, -19.03686905, 35.45090485, 6.79244137, -100.92008972, -0.59141976, 0.23699763, -0.19845521, -0.74476188, 0.06630744, 0.02074776, -0.01445125, 97.63400269, 311.88000488, 0.00000000, 0.00000000
1, 1.2600, 63, 0.05497127, -0.60309893, -0.80564606, 23.30159378, 14.17246532, 1.35400951, -15.47642422, -19.05392647, -19.64337540, 35.94222641, 7.00369835, -100.72952271, -0.59113002, 0.24119250, -0.20010507, -0.74320227, 0.06519868, 0.02389210, -0.00062511, 97.63400269, 311.88000488, 0.00000000, 0.00000000
1, 1.2800, 64, 0.05461873, -0.60068500, -0.81022865, 24.92235756, 12.61416721, 1.72491229, -14.89629555, -19.50823784, -19.24914360, 36.45911026, 7.18739510, -100.55580139, -0.59071547, 0.24531357, -0.20209037, -0.74164414, 0.06888721, 0.01456521, 0.00947641, 97.63400269, 311.88000488, 0.00000000, 0.00000000
1, 1.3000, 65, 0.05097768, -0.60708565, -0.80673236, 23.83303452, 10.64749432, -0.73920465, -15.15735435, -19.19589996, -19.15816689, 36.94613266, 7.38947392, -100.44631195, -0.58987850, 0.24927810, -0.20390846, -0.74048990, 0.07590561, 0.01431542, 0.01142181, 97.63400269, 311.88000488, 0.00000000, 0.00000000
1, 1.3200, 66, 0.05335774, -0.61155194, -0.78906852, 25.21172905, 9.37429619, -2.34433103, -14.72225571, -19.05392647, -19.37044907, 37.46046448, 7.57049131, -100.37060547, -0.58879083, 0.25318551, -0.20608222, -0.73942715, 0.07676695, 0.01204814, -0.00065114, 97.63400269, 311.88000488, 0.00000000, 0.00000000
1, 1.3400, 67, 0.05991270, -0.62028092, -0.77327234, 26.34638405, 11.72000217, -3.97755647, -14.60622978, -20.67241478, -18.79425812, 37.99599075, 7.82719707, -100.29068756, -0.58746642, 0.25767142, -0.20796508, -0.73840320, 0.07379069, 0.01387537, -0.01055743, 97.63400269, 311.88000488, 0.00000000, 0.00000000
1, 1.3600, 68, 0.07563537, -0.63779205, -0.78489143, 27.51258850, 14.34474564, -3.63548827, -14.75126266, -20.30328751, -18.76393509, 38.56600189, 8.09544754, -100.16747284, -0.58628005, 0.26247409, -0.20989963, -0.73710603, 0.06291173, 0.02430830, 0.00743729, 97.63400269, 311.88000488, 0.00000000, 0.00000000
1, 1.3800, 69, 0.08765101, -0.65484059, -0.79855275, 29.85213280, 13.94154739, -1.80405951, -14.80927372, -19.90576172, -18.85490990, 39.18832016, 8.33267784, -100.01696777, -0.58519173, 0.26739326, -0.21226215, -0.73552454, 0.05527721, 0.03371902, 0.02798725, 97.63400269, 311.88000488, 0.00000000, 0.00000000
1, 1.4000, 70, 0.09107628, -0.65918672, -0.79372972, 34.45240021, 15.45288086, -0.11518441, -14.08411217, -20.44525719, -18.52133179, 39.91446686, 8.59601688, -99.81679535, -0.58406603, 0.27308533, -0.21501327, -0.73352611, 0.05603218, 0.02958279, 0.03087538, 97.63400269, 311.88000488, 0.00000000, 0.00000000
1, 1.4200, 71, 0.08190428, -0.65683448, -0.77137727, 42.96516418, 20.56538582, -0.82476777, -14.46119690, -21.29709435, -18.91556358, 40.81841660, 8.92479324, -99.55889130, -0.58264488, 0.28017828, -0.21837772, -0.73098308, 0.07026122, 0.01685569, 0.01821370, 97.63400269, 311.88000488, 0.00000000, 0.00000000
1, 1.4400, 72, 0.07322977, -0.66280591, -0.74644011, 48.82048035, 24.95178795, -3.36365819, -14.08411217, -20.98475456, -18.46067810, 41.83758163, 9.35509300, -99.27886200, -0.58071041, 0.28849283, -0.22182667, -0.72824466, 0.08546825, 0.01085115, 0.00499082, 97.63400269, 311.88000488, 0.00000000, 0.00000000
1, 1.4600, 73, 0.07518080, -0.67038715, -0.72771579, 47.42801285, 23.59762192, -5.49780560, -13.41695881, -21.80819511, -18.43035507, 42.82028198, 9.77616882, -99.04420471, -0.57849932, 0.29644907, -0.22516406, -0.72578079, 0.09104268, 0.00627574, -0.00119053, 97.63400269, 311.88000488, 0.00000000, 0.00000000
1, 1.4800, 74, 0.08363087, -0.67760134, -0.71057028, 44.38078690, 21.16394997, -7.65791416, -13.32993984, -22.26250648, -18.03612328, 43.73848724, 10.19085979, -98.86448669, -0.57602984, 0.30390203, -0.22823495, -0.72370028, 0.08969108, 0.00241353, -0.00641104, 97.63400269, 311.88000488, 0.00000000, 0.00000000
1, 1.5000, 75, 0.10640659, -0.69664335, -0.69999206, 43.90223694, 20.89814568, -9.07101917, -13.62000656, -22.83039856, -17.27798080, 44.64353180, 10.62878418, -98.70335388, -0.57332057, 0.31135607, -0.23111628, -0.72176611, 0.07429485, 0.01107269, -0.00521803, 97.63400269, 311.88000488, 0.00000000, 0.00000000
1, 1.5200, 76, 0.12461052, -0.71093571, -0.68530363, 43.15935516, 20.39944077, -8.69668961, -13.30093288, -22.71682167, -17.55090714, 45.53815079, 11.03911209, -98.53375244, -0.57068849, 0.31857789, -0.23403227, -0.71975815, 0.06338561, 0.01533306, -0.00807688, 97.63400269, 311.88000488, 0.00000000, 0.00000000
1, 1.5400, 77, 0.13242283, -0.72641283, -0.68039179, 43.21786118, 19.71358681, -7.93602848, -12.25669861, -23.39828873, -17.64188385, 46.43395233, 11.43792629, -98.36065674, -0.56802636, 0.32571205, -0.23698108, -0.71770310, 0.06243610, 0.02102603, -0.00110791, 97.63400269, 311.88000488, 0.00000000, 0.00000000
1, 1.5600, 78, 0.13012452, -0.73220110, -0.66797447, 44.13817215, 19.10029411, -8.12619114, -12.28570557, -24.70443726, -16.85341835, 47.35548019, 11.82039356, -98.18816376, -0.56525493, 0.33284390, -0.24015366, -0.71556139, 0.07138280, 0.01715925, -0.00142201, 97.63400269, 311.88000488, 0.00000000, 0.00000000
1, 1.5800, 79, 0.14481930, -0.74502033, -0.65320092, 47.19679642, 21.88257027, -8.46824837, -11.87961388, -24.93159294, -17.00504684, 48.34569550, 12.24064827, -97.96949768, -0.56236106, 0.34059268, -0.24338068, -0.71310067, 0.06356994, 0.01995219, -0.00317454, 97.63400269, 311.88000488, 0.00000000, 0.00000000
1, 1.6000, 80, 0.14582244, -0.75464791, -0.64142370, 47.06642532, 23.00515938, -7.28452301, -11.90861797, -25.49948311, -16.97472382, 49.33951569, 12.66462231, -97.71566010, -0.55956364, 0.34841582, -0.24646494, -0.71045762, 0.06984342, 0.01945360, -0.00119299, 97.63400269, 311.88000488, 0.00000000, 0.00000000
1, 1.6200, 81, 0.14423901, -0.75864339, -0.62919235, 46.08850098, 22.88119125, -8.16841888, -11.87961388, -25.64145660, -16.15592957, 50.31613541, 13.08375835, -97.46839142, -0.55669487, 0.35607398, -0.24944739, -0.70786875, 0.07857209, 0.01373475, 0.00034766, 97.63400269, 311.88000488, 0.00000000, 0.00000000
1, 1.6400, 82, 0.15224458, -0.77016711, -0.61645359, 44.91343307, 19.59952164, -9.30396175, -11.29948235, -25.58466721, -15.85267258, 51.25233459, 13.48495293, -97.28395844, -0.55353230, 0.36325821, -0.25243816, -0.70563477, 0.07750683, 0.01605571, 0.00122074, 97.63400269, 311.88000488, 0.00000000, 0.00000000
1, 1.6600, 83, 0.16414988, -0.78054607, -0.58996147, 40.38042450, 13.83961296, -9.53390026, -11.41550827, -25.64145660, -15.79201889, 52.07631683, 13.80385303, -97.18524170, -0.55040586, 0.36921689, -0.25543815, -0.70390606, 0.07185414, 0.01817428, -0.01259761, 97.63400269, 311.88000488, 0.00000000, 0.00000000
1, 1.6800, 84, 0.17311159, -0.79247510, -0.57998776, 36.83430481, 11.84624481, -9.01963329, -10.92239857, -26.29453087, -15.03387737, 52.83034134, 14.09164619, -97.10468292, -0.54744595, 0.37459704, -0.25822267, -0.70235401, 0.06794968, 0.02297070, -0.01140090, 97.63400269, 311.88000488, 0.00000000, 0.00000000
1, 1.7000, 85, 0.17488644, -0.79236752, -0.57329202, 37.50260925, 14.21486950, -10.50631714, -10.57431793, -25.92540169, -15.09453011, 53.61101532, 14.44876862, -96.99981689, -0.54424870, 0.38050982, -0.26069564, -0.70074487, 0.07149465, 0.01621301, -0.00711057, 97.63400269, 311.88000488, 0.00000000, 0.00000000
1, 1.7200, 86, 0.17909802, -0.79195285, -0.55570346, 40.41080093, 17.85084343, -12.24437046, -10.89339066, -26.32292557, -15.30681133, 54.45779800, 14.86086082, -96.84772491, -0.54085761, 0.38710701, -0.26309437, -0.69885802, 0.07378840, 0.00892180, -0.01253477, 97.63400269, 311.88000488, 0.00000000, 0.00000000
1, 1.7400, 87, 0.18567413, -0.80111599, -0.54445612, 39.62677765, 18.34679031, -13.25120258, -10.16822624, -27.08957672, -14.51834679, 55.27990723, 15.29589081, -96.70429230, -0.53734058, 0.39365032, -0.26522341, -0.69710904, 0.07448675, 0.01134628, -0.01102963, 97.63400269, 311.88000488, 0.00000000, 0.00000000
1, 1.7600, 88, 0.20330736, -0.81621128, -0.54401994, 33.34038162, 11.10777473, -12.26506138, -10.34226608, -27.11797142, -14.00280857, 55.95180511, 15.61761189, -96.66346741, -0.53407449, 0.39860776, -0.26739919, -0.69596988, 0.06335714, 0.02071203, -0.00009499, 97.63400269, 311.88000488, 0.00000000, 0.00000000
1, 1.7800, 89, 0.21123664, -0.83008885, -0.53996116, 30.61489105, 6.77788687, -10.79951763, -10.45829201, -27.77104568, -14.30606556, 56.56637955, 15.87357140, -96.66947174, -0.53093028, 0.40281132, -0.26974538, -0.69504935, 0.06013303, 0.02977239, 0.00531701, 97.63400269, 311.88000488, 0.00000000, 0.00000000
1, 1.8000, 90, 0.21237567, -0.83262664, -0.52540171, 35.44076920, 9.89494801, -11.35971451, -9.93617439, -28.82164192, -14.00280857, 57.29308701, 16.19133949, -96.62376404, -0.52743280, 0.40795583, -0.27224451, -0.69373596, 0.06373727, 0.02733171, 0.00075865, 97.63400269, 311.88000488, 0.00000000, 0.00000000
1, 1.8200, 91, 0.21450448, -0.82793468, -0.50961262, 39.34126663, 14.10295296, -12.43136883, -9.47206879, -28.96361542, -13.66922855, 58.11309433, 16.55553818, -96.51263428, -0.52376729, 0.41389364, -0.27480751, -0.69198316, 0.06729372, 0.01695498, -0.00311278, 97.63400269, 311.88000488, 0.00000000, 0.00000000
1, 1.8400, 92, 0.21617466, -0.83480918, -0.49598199, 39.77797318, 14.84592915, -13.20641994, -9.18200207, -28.14017296, -13.63889885, 58.93834305, 16.94693375, -96.39672852, -0.51994270, 0.41996765, -0.27721778, -0.69024420, 0.07197272, 0.01807744, -0.00392368, 97.63400269, 311.88000488, 0.00000000, 0.00000000
1, 1.8600, 93, 0.22153646, -0.84505481, -0.48675931, 36.07003021, 10.60096931, -12.01035595, -8.80491829, -29.30435181, -13.88151073, 59.66764450, 17.25694466, -96.34151459, -0.51636660, 0.42499968, -0.27970427, -0.68884426, 0.07267562, 0.02311142, -0.00092619, 97.63400269, 311.88000488, 0.00000000, 0.00000000
1, 1.8800, 94, 0.22565871, -0.85050792, -0.46769097, 30.36323547, 4.74398565, -11.87102413, -8.86293316, -30.18457985, -12.72913551, 60.25745392, 17.50611305, -96.38481140, -0.51291889, 0.42882049, -0.28204542, -0.68809718, 0.07316881, 0.02428230, -0.00985080, 97.63400269, 311.88000488, 0.00000000, 0.00000000
1, 1.9000, 95, 0.23819903, -0.85778636, -0.45985565, 27.38525200, 0.52980971, -11.29866314, -9.12399197, -29.44632339, -12.69880486, 60.76887512, 17.73141289, -96.49906921, -0.50940877, 0.43196991, -0.28431359, -0.68780130, 0.06452158, 0.02811422, -0.00918460, 97.63400269, 311.88000488, 0.00000000, 0.00000000
1, 1.9200, 96, 0.23948362, -0.85638344, -0.44678319, 26.47503471, -0.04098051, -12.41229439, -7.99273491, -30.38334274, -12.27425003, 61.25937271, 17.94946671, -96.62583923, -0.50591117, 0.43493637, -0.28654706, -0.68758649, 0.06685022, 0.02370292, -0.01451678, 97.63400269, 311.88000488, 0.00000000, 0.00000000
1, 1.9400, 97, 0.24594156, -0.85664916, -0.43435583, 24.95661354, -0.01378036, -12.56768799, -8.36981964, -31.66109467, -11.94066334, 61.71245956, 18.19482803, -96.76062012, -0.50237721, 0.43783528, -0.28844258, -0.68754518, 0.06409676, 0.02117934, -0.01936424, 97.63400269, 311.88000488, 0.00000000, 0.00000000
1, 1.9600, 98, 0.26324478, -0.87513739, -0.44575852, 20.31511307, -4.21292877, -10.73155212, -8.54385948, -30.75247192, -12.06196880, 62.05422974, 18.33600616, -96.95247650, -0.49933824, 0.43955824, -0.29046059, -0.68781000, 0.05036055, 0.03757837, -0.00161623, 97.63400269, 311.88000488, 0.00000000, 0.00000000
1, 1.9800, 99, 0.26491475, -0.87772447, -0.43511337, 15.17333221, -11.11654949, -7.91237926, -8.45684147, -30.38334274, -11.21285152, 62.26342392, 18.36948586, -97.23988342, -0.49667138, 0.43990538, -0.29263827, -0.68859541, 0.05003354, 0.03839744, -0.00798590, 97.63400269, 311.88000488, 0.00000000, 0.00000000
1, 2.0000, 100, 0.25614998, -0.86857575, -0.41840470, 14.95491219, -10.75158119, -7.66442204, -8.02174282, -31.80306816, -10.87926388, 62.48176575, 18.44018936, -97.51293182, -0.49389833, 0.44050708, -0.29461762, -0.68936092, 0.05948000, 0.02793886, -0.02171606, 97.63400269, 311.88000488, 0.00000000, 0.00000000
1, 2.0200, 101, 0.24370202, -0.86128074, -0.41937244, 17.74437523, -3.14654326, -8.92056370, -8.10876083, -31.06480980, -10.57601452, 62.79665756, 18.57646370, -97.64960480, -0.49129668, 0.44219723, -0.29630306, -0.68941557, 0.07358669, 0.01912200, -0.01662592, 97.63400269, 311.88000488, 0.00000000, 0.00000000
1, 2.0400, 102, 0.24201201, -0.85685784, -0.43513143, 20.83050156, 2.94027710, -10.82587719, -8.31180859, -31.32036209, -10.42438602, 63.19936752, 18.82042122, -97.70117950, -0.48840714, 0.44501451, -0.29760998, -0.68909287, 0.07830095, 0.01287341, 0.00491494, 97.63400269, 311.88000488, 0.00000000, 0.00000000
1, 2.0600, 103, 0.24938697, -0.87355196, -0.44685346, 26.45914459, 6.68632889, -12.16171646, -7.93472052, -31.49072647, -10.30308056, 63.72962952, 19.09321022, -97.69471741, -0.48522890, 0.44865209, -0.29930219, -0.68824589, 0.07553114, 0.02744188, 0.02433775, 97.63400269, 311.88000488, 0.00000000, 0.00000000
1, 2.0800, 104, 0.25497380, -0.87536639, -0.42820868, 23.14030457, 0.02882272, -11.08234978, -7.64465809, -31.83146286, -10.12112999, 64.15219116, 19.29102516, -97.80218506, -0.48208508, 0.45114148, -0.30119714, -0.68800122, 0.07384080, 0.02689235, 0.01351718, 97.63400269, 311.88000488, 0.00000000, 0.00000000
1, 2.1000, 105, 0.24776526, -0.86932784, -0.40379730, 21.91422844, -1.14379191, -11.98123646, -7.38359594, -32.62651062, -10.30308056, 64.54458618, 19.52193260, -97.94212341, -0.47870967, 0.45356649, -0.30286479, -0.68803167, 0.08444556, 0.01912464, -0.00459801, 97.63400269, 311.88000488, 0.00000000, 0.00000000
1, 2.1200, 106, 0.25488269, -0.86916929, -0.39321607, 23.13713646, -0.56819171, -14.49034119, -7.44161034, -31.91664505, -10.39405632, 64.95914459, 19.78122330, -98.08670807, -0.47508088, 0.45619416, -0.30453664, -0.68807167, 0.08136121, 0.01736095, -0.00847846, 97.63400269, 311.88000488, 0.00000000, 0.00000000
1, 2.1400, 107, 0.27196690, -0.88030434, -0.38677102, 22.99060440, -0.80918431, -15.23294353, -7.35459232, -32.39935303, -9.36298752, 65.36058807, 20.07348633, -98.24647522, -0.47125280, 0.45887008, -0.30601946, -0.68826675, 0.06868555, 0.02706647, -0.00811728, 97.63400269, 311.88000488, 0.00000000, 0.00000000
1, 2.1600, 108, 0.28417853, -0.88826066, -0.38878256, 22.95040703, -1.65573299, -14.55757332, -7.29657745, -32.56971741, -8.75647354, 65.76371002, 20.32289696, -98.40794373, -0.46757674, 0.46131685, -0.30775484, -0.68836451, 0.06113046, 0.03385881, 0.00051041, 97.63400269, 311.88000488, 0.00000000, 0.00000000
1, 2.1800, 109, 0.29019475, -0.89008135, -0.37289831, 22.16008186, -2.53336048, -13.28796482, -7.12253714, -32.85366440, -9.15070629, 66.14679718, 20.54239273, -98.57275391, -0.46407750, 0.46350747, -0.30954885, -0.68845665, 0.05896763, 0.03431273, -0.00886405, 97.63400269, 311.88000488, 0.00000000, 0.00000000
1, 2.2000, 110, 0.29827395, -0.88993031, -0.34146965, 18.74149132, -2.30558205, -11.71161366, -6.45538712, -33.44995117, -8.69582081, 66.46927643, 20.76914978, -98.72346497, -0.46086359, 0.46551055, -0.31088808, -0.68866050, 0.05451705, 0.03304891, -0.03441580, 97.63400269, 311.88000488, 0.00000000, 0.00000000
1, 2.2200, 111, 0.29234236, -0.88520527, -0.32415080, 15.64740658, 0.16626194, -11.05767059, -6.25234318, -33.67710495, -7.78604984, 66.74821472, 20.97570801, -98.80920410, -0.45829639, 0.46740422, -0.31181285, -0.68867302, 0.06389625, 0.02758847, -0.04677432, 97.63400269, 311.88000488, 0.00000000, 0.00000000
1, 2.2400, 112, 0.29710540, -0.89287335, -0.33046505, 11.93129063, 3.76341581, -10.97744274, -6.48439455, -33.36476517, -8.21061230, 66.97691345, 21.24319077, -98.83435059, -0.45601803, 0.46954915, -0.31186518, -0.68870258, 0.06274498, 0.03487053, -0.03605521, 97.63400269, 311.88000488, 0.00000000, 0.00000000
1, 2.2600, 113, 0.31261969, -0.89871085, -0.34006467, 7.18227625, 4.23015642, -9.03392124, -5.67221117, -33.62031937, -7.51312351, 67.11843109, 21.44044304, -98.82573700, -0.45460665, 0.47109133, -0.31162921, -0.68868935, 0.05136961, 0.04099727, -0.02303040, 97.63400269, 311.88000488, 0.00000000, 0.00000000
1, 2.2800, 114, 0.31954166, -0.89184499, -0.34262541, 4.96831083, 4.43602467, -7.33708286, -6.16532087, -34.27339172, -7.57377625, 67.22900391, 21.61037064, -98.79927063, -0.45354840, 0.47242326, -0.31127879, -0.68863320, 0.04737493, 0.03445747, -0.01828741, 97.63400269, 311.88000488, 0.00000000, 0.00000000
1, 2.3000, 115, 0.31090856, -0.88975835, -0.34889823, 6.65999508, 4.35169458, -7.32559872, -6.16532087, -34.10302353, -7.81638050, 67.36739349, 21.82335472, -98.78750610, -0.45208997, 0.47402954, -0.31092566, -0.68864799, 0.05918292, 0.03276033, -0.00968956, 97.63400269, 311.88000488, 0.00000000, 0.00000000
1, 2.3200, 116, 0.29629794, -0.88514602, -0.35329264, 6.70820284, 4.46186781, -6.99406862, -5.67221117, -34.52894211, -7.93767834, 67.50998688, 21.98643494, -98.76020813, -0.45092803, 0.47544989, -0.31079891, -0.68848771, 0.07677687, 0.02832405, -0.00261541, 97.63400269, 311.88000488, 0.00000000, 0.00000000
1, 2.3400, 117, 0.29662311, -0.88447350, -0.35536307, 5.84479856, 1.96106517, -7.69166517, -5.87525511, -34.58573151, -7.63442135, 67.59942627, 22.18915367, -98.80784607, -0.44935402, 0.47664520, -0.31045192, -0.68884689, 0.07904688, 0.02786121, 0.00168707, 97.63400269, 311.88000488, 0.00000000, 0.00000000
1, 2.3600, 118, 0.30773988, -0.89055967, -0.35867983, 5.22565937, 1.35473931, -7.61156511, -5.64320374, -34.27339172, -7.69507456, 67.69368744, 22.33987617, -98.84400177, -0.44806132, 0.47763851, -0.31036431, -0.68904030, 0.07116196, 0.03468484, 0.00666974, 97.63400269, 311.88000488, 0.00000000, 0.00000000
1, 2.3800, 119, 0.29899770, -0.88344258, -0.36322817, 7.91785860, 0.72797906, -7.88726711, -5.75922966, -34.27339172, -7.45247030, 67.83306885, 22.49236107, -98.89784241, -0.44646350, 0.47876614, -0.31061295, -0.68918282, 0.08231969, 0.02775853, 0.01336955, 97.63400269, 311.88000488, 0.00000000, 0.00000000
1, 2.4000, 120, 0.29966259, -0.87869054, -0.35007843, 9.00514221, -1.95274317, -10.39569187, -5.93326998, -34.33018494, -7.66475201, 67.95133209, 22.70278740, -99.03835297, -0.44416502, 0.47984987, -0.31078908, -0.68983459, 0.08460677, 0.02333721, 0.00264998, 97.63400269, 311.88000488, 0.00000000, 0.00000000
1, 2.4200, 121, 0.31477907, -0.88877660, -0.32801762, 7.28989363, -0.98304802, -10.09839249, -4.97605371, -35.66472244, -7.27051973, 68.05828857, 22.88279343, -99.13524628, -0.44231099, 0.48085946, -0.31087890, -0.69028223, 0.07262242, 0.03397093, -0.01727423, 97.63400269, 311.88000488, 0.00000000, 0.00000000
1, 2.4400, 122, 0.32888848, -0.89319539, -0.33209616, 6.55019236, 1.55358398, -8.12701702, -6.10731030, -34.98325729, -7.11889124, 68.16582489, 23.09386063, -99.18813324, -0.44057372, 0.48213547, -0.31062299, -0.69061822, 0.06130471, 0.03880391, -0.01107105, 97.63400269, 311.88000488, 0.00000000, 0.00000000
1, 2.4600, 123, 0.32895955, -0.88896340, -0.34556669, 7.78049755, 1.73106277, -7.27402163, -5.64320374, -34.69931030, -7.57377625, 68.31417847, 23.24370956, -99.21349335, -0.43910784, 0.48334837, -0.31082436, -0.69061345, 0.06444175, 0.03513036, 0.00467993, 97.63400269, 311.88000488, 0.00000000, 0.00000000
1, 2.4800, 124, 0.32332054, -0.88260037, -0.34521130, 11.66322327, 0.27615476, -9.32001114, -5.78823662, -34.75609970, -7.27051973, 68.52105713, 23.41997528, -99.28225708, -0.43700767, 0.48478827, -0.31142148, -0.69066733, 0.07271026, 0.02876011, 0.00740186, 97.63400269, 311.88000488, 0.00000000, 0.00000000
1, 2.5000, 125, 0.32321626, -0.88691372, -0.33121765, 11.42824554, 0.39207777, -9.12294006, -5.26611948, -34.44375610, -6.17879009, 68.71105194, 23.62611008, -99.36201477, -0.43476921, 0.48626918, -0.31180552, -0.69086576, 0.07597329, 0.03314307, -0.00303044, 97.63400269, 311.88000488, 0.00000000, 0.00000000
1, 2.5200, 126, 0.31419617, -0.87796861, -0.32307410, 8.59294510, -0.17749816, -9.54466534, -5.17910147, -35.43756866, -7.33116436, 68.84928131, 23.80565071, -99.44044495, -0.43287659, 0.48742637, -0.31201521, -0.69114393, 0.08794367, 0.02444607, -0.00825949, 97.63400269, 311.88000488, 0.00000000, 0.00000000
1, 2.5400, 127, 0.31230855, -0.87842596, -0.31067538, 8.89660931, 1.54879177, -11.31345081, -5.49817085, -35.86348724, -7.05823803, 69.00850677, 24.05950546, -99.50480652, -0.43062937, 0.48904657, -0.31189683, -0.69145662, 0.09305327, 0.02543556, -0.01809172, 97.63400269, 311.88000488, 0.00000000, 0.00000000
1, 2.5600, 128, 0.32475436, -0.88801926, -0.31171173, 11.76748943, 4.99513197, -13.23814678, -5.03406858, -36.60174179, -6.08781433, 69.24245453, 24.34278870, -99.50589752, -0.42829970, 0.49124974, -0.31180263, -0.69138426, 0.08515900, 0.03577148, -0.01331507, 97.63400269, 311.88000488, 0.00000000, 0.00000000
1, 2.5800, 129, 0.32879841, -0.88187379, -0.31543797, 9.69023132, 3.76007533, -13.43373871, -4.88903522, -36.20422363, -6.02716160, 69.41907501, 24.61995316, -99.53723145, -0.42605323, 0.49311861, -0.31152451, -0.69156724, 0.08561496, 0.03031121, -0.00565537, 97.63400269, 311.88000488, 0.00000000, 0.00000000
1, 2.6000, 130, 0.35390756, -0.88593495, -0.29026642, 6.20508289, 3.10116673, -12.55156517, -5.12108660, -35.43756866, -6.48204708, 69.53308105, 24.91433907, -99.57386780, -0.42395657, 0.49481371, -0.31079939, -0.69197118, 0.06510437, 0.03558770, -0.02806719, 97.63400269, 311.88000488, 0.00000000, 0.00000000
1, 2.6200, 131, 0.36390319, -0.88227624, -0.29302239, 4.34822750, 8.44749641, -9.00718880, -4.94704628, -36.14743042, -5.78455782, 69.66064453, 25.13971138, -99.46679688, -0.42298865, 0.49662152, -0.30990219, -0.69167072, 0.05919956, 0.03302478, -0.02281742, 97.63400269, 311.88000488, 0.00000000, 0.00000000
1, 2.6400, 132, 0.33811572, -0.87990242, -0.30666593, -0.10526299, 6.15202284, -8.23605633, -4.25088882, -36.43137741, -5.87553310, 69.66277313, 25.37376213, -99.43872070, -0.42204347, 0.49778843, -0.30854109, -0.69201773, 0.08829015, 0.03164860, -0.00740868, 97.63400269, 311.88000488, 0.00000000, 0.00000000
1, 2.6600, 133, 0.34501371, -0.88230014, -0.30578089, -2.39521861, 0.22647460, -9.88381767, -4.48294401, -36.00545883, -5.23869658, 69.57719421, 25.55584908, -99.51800537, -0.42107520, 0.49810243, -0.30739346, -0.69289172, 0.08500662, 0.03595155, -0.00850519, 97.63400269, 311.88000488, 0.00000000, 0.00000000
1, 2.6800, 134, 0.35145697, -0.87255567, -0.30287075, -8.80182266, -2.52606821, -6.73634291, -4.45393658, -36.48816299, -5.51163101, 69.34986115, 25.66067314, -99.63333893, -0.42086905, 0.49744388, -0.30595720, -0.69412470, 0.08071600, 0.02805894, -0.01343726, 97.63400269, 311.88000488, 0.00000000, 0.00000000
1, 2.7000, 135, 0.36380699, -0.86185360, -0.30002952, -11.32111835, -10.17673969, -8.00423622, -4.45393658, -36.97087097, -5.45097828, 69.00003815, 25.77351189, -99.91886902, -0.42012000, 0.49592400, -0.30446807, -0.69631737, 0.07005779, 0.01971787, -0.02023020, 97.63400269, 311.88000488, 0.00000000, 0.00000000
1, 2.7200, 136, 0.34768161, -0.88222522, -0.28321815, -6.81117535, 0.83769417, -12.40946198, -4.51194715, -35.86348724, -5.20837402, 68.85418701, 26.02659416, -99.97802734, -0.41919664, 0.49641192, -0.30248141, -0.69739109, 0.08876115, 0.04287645, -0.04083392, 97.63400269, 311.88000488, 0.00000000, 0.00000000
1, 2.7400, 137, 0.39849514, -0.91559416, -0.30194142, 4.02958202, 16.31509781, -15.63927364, -5.06307173, -36.99926758, -4.78381157, 69.03147888, 26.46126366, -99.76519012, -0.41766390, 0.49963617, -0.30030179, -0.69695008, 0.04347691, 0.07853348, -0.02052772, 97.63400269, 311.88000488, 0.00000000, 0.00000000
1, 2.7600, 138, 0.41849381, -0.91397423, -0.33012041, 5.93529129, 21.22970772, -12.42655087, -4.71499491, -36.85729599, -4.90511751, 69.31063843, 26.84595871, -99.41511536, -0.41674191, 0.50333756, -0.29839456, -0.69565672, 0.03008374, 0.07869606, 0.01218234, 97.63400269, 311.88000488, 0.00000000, 0.00000000
1, 2.7800, 139, 0.42478311, -0.90712851, -0.34395280, 6.82788944, 22.00933075, -13.55344009, -4.16387033, -36.26100922, -4.54120731, 69.59762573, 27.24306488, -99.06424713, -0.41571113, 0.50710100, -0.29644254, -0.69437355, 0.03025383, 0.07314446, 0.03185001, 97.63400269, 311.88000488, 0.00000000, 0.00000000
1, 2.8000, 140, 0.41572061, -0.89301085, -0.32966200, 3.82440162, 17.32699966, -12.24884033, -3.98983026, -37.08444977, -4.08632231, 69.78201294, 27.63114929, -98.81485748, -0.41454604, 0.51016599, -0.29434890, -0.69371545, 0.04491750, 0.06060920, 0.02157721, 97.63400269, 311.88000488, 0.00000000, 0.00000000
1, 2.8200, 141, 0.43245026, -0.88795233, -0.33663917, 10.52190781, 17.21763229, -14.15430641, -4.36691427, -35.94866943, -5.11739874, 70.12378693, 28.01265907, -98.56191254, -0.41271654, 0.51375806, -0.29321292, -0.69263554, 0.03436193, 0.05731160, 0.03313003, 97.63400269, 311.88000488, 0.00000000, 0.00000000
1, 2.8400, 142, 0.44094872, -0.90256113, -0.31425887, 16.01366043, 14.99026966, -11.58965969, -3.67076063, -36.31779480, -5.14772129, 70.53359985, 28.35270882, -98.34699249, -0.41052973, 0.51728988, -0.29286927, -0.69145072, 0.03127312, 0.07245320, 0.01774136, 97.63400269, 311.88000488, 0.00000000, 0.00000000
1, 2.8600, 143, 0.42550334, -0.89856166, -0.31691459, 8.55544853, 12.57034397, -6.76611137, -3.49672031, -36.91408157, -4.35925674, 70.80373383, 28.55962181, -98.12510681, -0.40964293, 0.51973474, -0.29236537, -0.69035566, 0.05108660, 0.06894553, 0.02605852, 97.63400269, 311.88000488, 0.00000000, 0.00000000
1, 2.8800, 144, 0.41748264, -0.88859046, -0.34604651, 7.92163849, 14.77017784, -4.73245716, -3.69976425, -36.99926758, -4.72315836, 71.11580658, 28.74890518, -97.83615875, -0.40904340, 0.52241397, -0.29189530, -0.68888628, 0.06198801, 0.05914776, 0.05946195, 97.63400269, 311.88000488, 0.00000000, 0.00000000
1, 2.9000, 145, 0.41640657, -0.88052177, -0.35419175, 22.36260986, 18.91592216, -6.50355244, -3.14863968, -36.82889557, -4.99609280, 71.73248291, 29.01299667, -97.49273682, -0.40699396, 0.52662891, -0.29257905, -0.68659705, 0.06650772, 0.05060648, 0.07485777, 97.63400269, 311.88000488, 0.00000000, 0.00000000
1, 2.9200, 146, 0.40514126, -0.85372394, -0.31433320, 30.73156357, 15.06968784, -11.78738594, -3.00360680, -38.56096649, -4.63218307, 72.46431732, 29.33783150, -97.25624084, -0.40343714, 0.53121084, -0.29408592, -0.68451965, 0.08219228, 0.02278060, 0.04595007, 97.63400269, 311.88000488, 0.00000000, 0.00000000
1, 2.9400, 147, 0.40009108, -0.84850472, -0.28444326, 29.69805908, 10.08861446, -19.31819916, -2.53950429, -36.77210999, -4.23795080, 73.10015869, 29.77112389, -97.16815948, -0.39886278, 0.53549266, -0.29509583, -0.68342853, 0.09307359, 0.01748838, 0.02716682, 101.82900238, -41.86999130, 25.54999924, 0.00000000
1, 2.9600, 148, 0.41274935, -0.85032636, -0.25327981, 25.66217804, 12.56617832, -14.50658512, -3.14863968, -36.71532440, -4.23795080, 73.70283508, 30.12291336, -96.97939301, -0.39541113, 0.53953606, -0.29587111, -0.68191725, 0.08640271, 0.01989535, 0.00584440, 101.82900238, -41.86999130, 25.54999924, 0.00000000
1, 2.9800, 149, 0.42288947, -0.86290896, -0.25876033, 28.05215073, 14.50250244, -13.83707333, -2.33645654, -37.31160736, -4.51088476, 74.39326477, 30.47301865, -96.73997498, -0.39181814, 0.54396945, -0.29692015, -0.68001044, 0.08158069, 0.03279905, 0.02123475, 101.82900238, -41.86999130, 25.54999924, 0.00000000
1, 3.0000, 150, 0.43881235, -0.86135697, -0.23539603, 32.60581207, 17.11799049, -16.01254845, -1.35023296, -37.93628693, -3.69208980, 75.18209076, 30.88584900, -96.46210480, -0.38762343, 0.54904944, -0.29800025, -0.67785597, 0.07142238, 0.03146408, 0.00972826, 101.82900238, -41.86999130, 25.54999924, 0.00000000
1, 3.0200, 151, 0.44660577, -0.87871975, -0.20496134, 26.57517052, 15.58515644, -12.31862068, -1.55328071, -38.95848846, -4.05599976, 75.84297943, 31.19435883, -96.18783569, -0.38450149, 0.55322415, -0.29888809, -0.67584580, 0.06922275, 0.04919478, -0.00905114, 101.82900238, -41.86999130, 25.54999924, 0.00000000
1, 3.0400, 152, 0.45425737, -0.88297224, -0.18901920, 19.31080818, 10.13272381, -6.94356251, -1.52427340, -39.32761765, -3.87404084, 76.33476257, 31.39629364, -95.99993134, -0.38220006, 0.55615819, -0.29976448, -0.67435336, 0.06519257, 0.05354136, -0.01643751, 101.82900238, -41.86999130, 25.54999924, 0.00000000
1, 3.0600, 153, 0.46652043, -0.86333138, -0.22401696, 18.21396065, 9.27039814, -4.62791967, -1.40824771, -38.47578049, -3.75274277, 76.77587891, 31.53336906, -95.83389282, -0.38033032, 0.55859768, -0.30079556, -0.67293352, 0.05536649, 0.03359213, 0.02611914, 101.82900238, -41.86999130, 25.54999924, 0.00000000
1, 3.0800, 154, 0.44460523, -0.87562358, -0.20370050, 14.67734909, -0.40558317, -8.48262882, -0.82811582, -38.67454529, -3.84371829, 77.03771973, 31.69611931, -95.88946533, -0.37789217, 0.55995107, -0.30170858, -0.67277354, 0.07960035, 0.04615579, 0.01085287, 101.82900238, -41.86999130, 25.54999924, 0.00000000
1, 3.1000, 155, 0.43809330, -0.88919735, -0.17050609, 14.54393482, 3.52336311, -5.95023775, -0.33500597, -39.18564606, -3.63143682, 77.37751007, 31.85103798, -95.82530212, -0.37580949, 0.56183726, -0.30253610, -0.67199558, 0.08857996, 0.06031295, -0.01807782, 101.82900238, -41.86999130, 25.54999924, 0.00000000
1, 3.1200, 156, 0.46139762, -0.88782209, -0.17429101, 23.07201767, 14.76638412, -3.33421922, -0.56705719, -38.90169907, -3.29785728, 78.01887512, 31.97860527, -95.49686432, -0.37392005, 0.56529349, -0.30397302, -0.66949791, 0.06724430, 0.05853039, -0.00683541, 101.82900238, -41.86999130, 25.54999924, 0.00000000
1, 3.1400, 157, 0.47644514, -0.90036219, -0.16412665, 23.13358307, 15.56331635, -0.13595857, -0.18997298, -39.75353622, -3.60111427, 78.65970612, 32.06111908, -95.14534760, -0.37237224, 0.56862724, -0.30551630, -0.66682965, 0.05376058, 0.06994171, -0.00698130, 101.82900238, -41.86999130, 25.54999924, 0.00000000
1, 3.1600, 158, 0.46847066, -0.88617605, -0.16573520, 16.79554749, 12.68234062, 4.66018963, -0.21898034, -39.52638245, -3.20688200, 79.15537262, 32.01805115, -94.84025574, -0.37190324, 0.57089138, -0.30711561, -0.66441780, 0.06207755, 0.05433623, 0.00276991, 101.82900238, -41.86999130, 25.54999924, 0.00000000
1, 3.1800, 159, 0.44855577, -0.86389613, -0.17894237, 13.06766510, 2.79449177, 1.59155738, 0.04207826, -39.41279984, -3.29785728, 79.44020081, 32.00300598, -94.78707886, -0.37086922, 0.57190150, -0.30858347, -0.66344637, 0.08140898, 0.03056025, 0.02181940, 101.82900238, -41.86999130, 25.54999924, 0.00000000
1, 3.2000, 160, 0.43859506, -0.86980301, -0.16670936, 12.45740032, -7.27578783, -4.39526749, -0.33500597, -40.69055557, -3.69208980, 79.57647705, 32.08992767, -94.98952484, -0.36856419, 0.57211715, -0.30990559, -0.66392851, 0.09199397, 0.03634429, 0.01236726, 101.82900238, -41.86999130, 25.54999924, 0.00000000
1, 3.2200, 161, 0.44159749, -0.88356084, -0.11931851, 18.52875710, 1.84085274, -3.00180268, 0.18711124, -40.49179077, -3.78306532, 79.99254608, 32.15637207, -94.93492889, -0.36645323, 0.57384515, -0.31167635, -0.66277570, 0.09011941, 0.05018547, -0.03154607, 101.82900238, -41.86999130, 25.54999924, 0.00000000
1, 3.2400, 162, 0.45310080, -0.87554622, -0.12500504, 24.67572975, 12.08320713, -1.85498583, 0.18711124, -40.60537338, -3.41915536, 80.62212372, 32.25798416, -94.66728210, -0.36430559, 0.57695454, -0.31340986, -0.66043860, 0.07969248, 0.04135790, -0.01731678, 101.82900238, -41.86999130, 25.54999924, 0.00000000
1, 3.2600, 163, 0.45640072, -0.87318319, -0.13872336, 19.60685539, 8.58443928, -3.13298559, 0.91227615, -41.17326355, -3.66176724, 81.10272217, 32.34928131, -94.49131012, -0.36241475, 0.57929140, -0.31478781, -0.65877599, 0.07796407, 0.03861814, 0.00473776, 101.82900238, -41.86999130, 25.54999924, 0.00000000
1, 3.2800, 164, 0.45373592, -0.87250006, -0.13824555, 15.16186047, 0.05932304, -6.54493237, 0.82525784, -40.60537338, -3.60111427, 81.38398743, 32.48173904, -94.52404785, -0.36010626, 0.58056414, -0.31584385, -0.65841591, 0.08225384, 0.03807857, 0.00997095, 101.82900238, -41.86999130, 25.54999924, 0.00000000
1, 3.3000, 165, 0.44743225, -0.88759047, -0.13364045, 15.34194565, -3.01308942, -8.35450554, 0.53519189, -42.13867569, -3.11590648, 81.63623810, 32.65960693, -94.62741089, -0.35729474, 0.58170491, -0.31684315, -0.65846062, 0.09093247, 0.05413852, 0.00906216, 101.82900238, -41.86999130, 25.54999924, 0.00000000
1, 3.3200, 166, 0.45271417, -0.90450001, -0.09343457, 21.19962311, 4.35867071, -4.63924074, 1.40538597, -40.34981918, -3.20688200, 82.13777924, 32.75866318, -94.51099396, -0.35488796, 0.58393836, -0.31858736, -0.65694189, 0.08776648, 0.07165227, -0.02590497, 101.82900238, -41.86999130, 25.54999924, 0.00000000
1, 3.3400, 167, 0.46038210, -0.87895077, -0.09299378, 26.75905418, 18.99092865, -0.10945587, 1.43439329, -40.34981918, -3.29785728, 82.91095734, 32.82704544, -94.06228638, -0.35313779, 0.58781779, -0.32034031, -0.65356410, 0.08110385, 0.04538279, -0.01631929, 101.82900238, -41.86999130, 25.54999924, 0.00000000
1, 3.3600, 168, 0.46296507, -0.88508940, -0.09483477, 23.06868935, 19.59278488, 2.75696778, 1.92750692, -39.95230103, -2.75199652, 83.61894226, 32.81499100, -93.59754181, -0.35220319, 0.59125781, -0.32204255, -0.65011978, 0.07913665, 0.05056538, -0.00359544, 101.82900238, -41.86999130, 25.54999924, 0.00000000
1, 3.3800, 169, 0.46104461, -0.88111579, -0.10081431, 15.57868481, 11.52975655, 4.00993252, 1.60843360, -41.82633591, -3.32817984, 84.06088257, 32.76077652, -93.33231354, -0.35171029, 0.59317750, -0.32347134, -0.64792490, 0.08047951, 0.04523078, 0.01111942, 101.82900238, -41.86999130, 25.54999924, 0.00000000
1, 3.4000, 170, 0.46196869, -0.87418061, -0.08214942, 8.02588654, 3.25689483, 3.24167228, 1.57942629, -40.37821579, -3.54046130, 84.26058960, 32.74924088, -93.25051880, -0.35119954, 0.59398210, -0.32423916, -0.64708054, 0.07917838, 0.03760269, -0.00327166, 101.82900238, -41.86999130, 25.54999924, 0.00000000
1, 3.4200, 171, 0.44781983, -0.85001069, -0.06254505, -3.59839964, 5.99926472, 21.23064995, 1.52141535, -40.66215897, -3.08557606, 84.30285645, 32.35713577, -93.06401825, -0.35412183, 0.59331435, -0.32565281, -0.64538836, 0.09054448, 0.01148488, -0.02132136, 101.82900238, -41.86999130, 25.54999924, 0.00000000
1, 3.4400, 172, 0.44743285, -0.90197670, -0.08232912, 14.41263771, 12.58711910, 6.82144022, 1.92750692, -41.85472870, -3.23720431, 84.78141785, 32.25735474, -92.73617554, -0.35401359, 0.59539062, -0.32718664, -0.64275450, 0.08685839, 0.06057338, 0.00127608, 101.82900238, -41.86999130, 25.54999924, 0.00000000
1, 3.4600, 173, 0.46818277, -0.88674933, -0.06016468, 23.20268822, 22.34119225, 10.34657001, 2.01452518, -40.83252716, -3.35851026, 85.53830719, 32.08732224, -92.18300629, -0.35406828, 0.59874845, -0.32946271, -0.63842809, 0.06435174, 0.04338040, -0.01143953, 101.82900238, -41.86999130, 25.54999924, 0.00000000
1, 3.4800, 174, 0.47727075, -0.86560714, -0.05149629, 16.29309845, 21.68109322, 12.40800285, 1.86949229, -40.60537338, -3.26753497, 86.11925507, 31.86998749, -91.66962433, -0.35503629, 0.60131317, -0.33118537, -0.63457710, 0.05241477, 0.01962893, -0.00972765, 101.82900238, -41.86999130, 25.54999924, 0.00000000
1, 3.5000, 175, 0.47918680, -0.85047466, -0.04658206, 1.99667239, 11.03903484, 9.74385548, 1.63744104, -40.77573776, -3.35851026, 86.28614044, 31.75436211, -91.39842987, -0.35627568, 0.60223919, -0.33131379, -0.63293505, 0.04777343, 0.00242009, -0.00923734, 101.82900238, -41.86999130, 25.54999924, 0.00000000
1, 3.5200, 176, 0.46747404, -0.87150770, -0.03194140, -10.44530582, 10.03832531, 3.75969410, 1.57942629, -41.48560333, -3.35851026, 86.20616150, 31.68909645, -91.14530945, -0.35844049, 0.60250854, -0.32989743, -0.63219583, 0.05836589, 0.02274526, -0.02368593, 101.82900238, -41.86999130, 25.54999924, 0.00000000
1, 3.5400, 177, 0.47530073, -0.89781541, -0.01808204, -10.90962601, 21.80442238, 8.76937771, 1.98551786, -41.23005295, -3.84371829, 86.29560089, 31.55397224, -90.58481598, -0.36177322, 0.60396320, -0.32817683, -0.62980044, 0.04906031, 0.04817357, -0.03807563, 101.82900238, -41.86999130, 25.54999924, 0.00000000
1, 3.5600, 178, 0.47797078, -0.88462603, -0.04132517, -11.56873703, 37.34923172, 17.42565155, 1.34737504, -40.97450256, -4.60186052, 86.52947998, 31.24829292, -89.68068695, -0.36710617, 0.60631311, -0.32635510, -0.62538773, 0.04317679, 0.03282801, -0.01199103, 101.82900238, -41.86999130, 25.54999924, 0.00000000
1, 3.5800, 179, 0.45177233, -0.85976487, -0.05508242, -13.20751476, 39.65353012, 19.98414040, 0.94128346, -40.80413437, -4.57152987, 86.76026154, 30.89724922, -88.72283936, -0.37293717, 0.60867149, -0.32445616, -0.62061673, 0.06435303, 0.00472575, 0.00488684, 101.82900238, -41.86999130, 25.54999924, 0.00000000
1, 3.6000, 180, 0.45795831, -0.83648080, -0.06417812, -11.41336441, 43.61138916, 16.62133217, 0.73823577, -40.74734497, -4.63218307, 87.06498718, 30.64068604, -87.68273926, -0.37826759, 0.61180693, -0.32197055, -0.61558187, 0.05344190, -0.02160686, 0.01777906, 101.82900238, -41.86999130, 25.54999924, 0.00000000
1, 3.6200, 181, 0.44805744, -0.85366154, -0.05626606, -7.31807089, 45.71268845, 10.43356705, 1.14432740, -41.74115372, -4.96577024, 87.46955872, 30.47973633, -86.61192322, -0.38266757, 0.61565548, -0.31928614, -0.61040181, 0.06029288, -0.00649856, 0.01501279, 101.82900238, -41.86999130, 25.54999924, 0.00000000
1, 3.6400, 182, 0.45845413, -0.87677914, -0.00496863, -8.28403282, 46.89262009, 9.45093632, 1.40538597, -41.08807755, -5.29934978, 87.86373901, 30.34297180, -85.50309753, -0.38713336, 0.61964548, -0.31615549, -0.60515535, 0.04770177, 0.01505149, -0.03009020, 101.82900238, -41.86999130, 25.54999924, 0.00000000
1, 3.6600, 183, 0.46365649, -0.87828082, 0.02505538, -12.83437920, 53.92066193, 11.80283833, 0.65121752, -41.03129196, -5.51163101, 88.24470520, 30.14503288, -84.23278046, -0.39276266, 0.62384790, -0.31236121, -0.59915096, 0.04003486, 0.01489975, -0.05447453, 101.82900238, -41.86999130, 25.54999924, 0.00000000
1, 3.6800, 184, 0.46065482, -0.87098998, 0.02282180, -12.94245815, 60.34813690, 10.15734386, 1.14432740, -41.62757492, -5.69358206, 88.68193817, 29.97744751, -82.83148956, -0.39851877, 0.62867332, -0.30790752, -0.59257555, 0.04020742, 0.00577475, -0.04598108, 101.82900238, -41.86999130, 25.54999924, 0.00000000
1, 3.7000, 185, 0.43929988, -0.86999911, 0.01274727, -16.87211990, 60.67790604, 9.07896900, 1.05730915, -42.62138367, -6.93693209, 89.04788208, 29.83440208, -81.41746521, -0.40450430, 0.63332790, -0.30280077, -0.58616018, 0.05930744, 0.00334082, -0.02983081, 101.82900238, -41.86999130, 25.54999924, 0.00000000
1, 3.7200, 186, 0.43064722, -0.85673052, 0.02316586, -21.02585411, 66.36856079, 6.21842003, 1.17333472, -42.50780106, -7.39181757, 89.39276886, 29.73657799, -79.87886810, -0.41090995, 0.63831627, -0.29656515, -0.57944322, 0.06589911, -0.01119701, -0.03507145, 101.82900238, -41.86999130, 25.54999924, 0.00000000
1, 3.7400, 187, 0.44929445, -0.83921254, -0.00702966, -11.34503078, 72.02627563, -3.21671271, 2.27558374, -43.01890182, -7.72539711, 90.01408386, 29.83309746, -78.21397400, -0.41531304, 0.64506567, -0.28982177, -0.57219642, 0.04711361, -0.02885917, 0.00204058, 101.82900238, -41.86999130, 25.54999924, 0.00000000
1, 3.7600, 188, 0.43068969, -0.85750800, 0.04122408, -4.31763744, 80.35124969, -7.17721462, 1.86949229, -42.39422607, -7.69507456, 90.87519836, 29.96866798, -76.33413696, -0.41907728, 0.65323043, -0.28267637, -0.56370056, 0.06777710, -0.00937211, -0.03497900, 101.82900238, -41.86999130, 25.54999924, 0.00000000
1, 3.7800, 189, 0.42190570, -0.85031176, 0.04004919, 0.31144920, 96.54252625, -11.93063164, 2.24657655, -43.04730225, -7.33116436, 92.01358795, 30.16628838, -74.08719635, -0.42251506, 0.66332698, -0.27420080, -0.55343682, 0.07899170, -0.01491549, -0.01849920, 101.82900238, -41.86999130, 25.54999924, 0.00000000
1, 3.8000, 190, 0.42205736, -0.86208785, 0.02048452, 3.96091008, 100.46828461, -16.24351501, 2.33359861, -43.61518860, -8.02865410, 93.27913666, 30.40535545, -71.73272705, -0.42522255, 0.67405945, -0.26516113, -0.54269636, 0.08231824, -0.00046416, 0.01933037, 101.82900238, -41.86999130, 25.54999924, 0.00000000
1, 3.8200, 191, 0.42956534, -0.87161624, 0.04315616, 1.16693306, 105.76111603, -18.15055084, 2.71068287, -43.55840302, -7.14921379, 94.56845856, 30.62127495, -69.24390411, -0.42819789, 0.68493265, -0.25522277, -0.53138995, 0.07821677, 0.01215445, 0.01565410, 101.82900238, -41.86999130, 25.54999924, 0.00000000
1, 3.8400, 192, 0.46816823, -0.87492716, 0.02877267, 6.91133595, 106.75227356, -21.67695999, 3.34882569, -44.92134094, -7.11889124, 95.99903870, 30.87144852, -66.73397064, -0.42989701, 0.69620943, -0.24524398, -0.51993901, 0.04286453, 0.01902924, 0.05031210, 101.82900238, -41.86999130, 25.54999924, 0.00000000
1, 3.8600, 193, 0.46897990, -0.90654868, 0.07147606, 15.36047649, 102.89708710, -22.55080414, 3.81293178, -44.94973373, -7.81638050, 97.56942749, 31.07344818, -64.28251648, -0.43032655, 0.70756829, -0.23613477, -0.50833714, 0.04579961, 0.05522206, 0.02956525, 101.82900238, -41.86999130, 25.54999924, 0.00000000
1, 3.8800, 194, 0.46964341, -0.93716156, 0.12853844, 8.48124981, 110.33827972, -18.26285362, 3.78392458, -46.14230728, -7.30084229, 99.08004761, 31.10618210, -61.66970444, -0.43222007, 0.71857160, -0.22630912, -0.49560559, 0.04704759, 0.09006144, -0.00436069, 101.82900238, -41.86999130, 25.54999924, 0.00000000
1, 3.9000, 195, 0.48212335, -0.92507774, 0.06410500, 6.56447506, 102.80579376, -14.23017216, 4.88617373, -47.33487320, -7.11889124, 100.44905853, 31.04910088, -59.26982880, -0.43408978, 0.72832537, -0.21732546, -0.48360932, 0.03409325, 0.08108795, 0.08141226, 101.82900238, -41.86999130, 25.54999924, 0.00000000
1, 3.9200, 196, 0.48485294, -0.91360730, 0.02036029, 5.30962276, 82.07698059, -13.18411446, 5.40829086, -48.81138611, -7.51312351, 101.54403687, 30.99534035, -57.35818100, -0.43532109, 0.73598838, -0.20998496, -0.47404963, 0.03053004, 0.07245296, 0.14341795, 101.82900238, -41.86999130, 25.54999924, 0.00000000
1, 3.9400, 197, 0.47776249, -0.91618079, 0.10325168, 10.50244427, 69.32582092, -8.98825836, 5.32127237, -47.70399857, -6.99758530, 102.60162354, 30.88784981, -55.73544312, -0.43562034, 0.74284416, -0.20444204, -0.46542561, 0.03643143, 0.07745229, 0.07597820, 101.82900238, -41.86999130, 25.54999924, 0.00000000
1, 3.9600, 198, 0.45576516, -0.91593832, 0.18665299, 17.74294090, 69.94082642, -5.49498081, 5.66934967, -49.12372971, -7.20986652, 103.80017090, 30.67218399, -54.11537552, -0.43525749, 0.75008470, -0.19988813, -0.45603582, 0.05614563, 0.07952208, 0.00913780, 101.82900238, -41.86999130, 25.54999924, 0.00000000
1, 3.9800, 199, 0.44065511, -0.90121460, 0.20173164, 23.66270256, 73.77079010, -6.33545589, 6.74259520, -50.82740021, -6.26977348, 105.15112305, 30.41479874, -52.41846848, -0.43413776, 0.75796032, -0.19543469, -0.44589898, 0.06773043, 0.06737815, 0.01329098, 101.82900238, -41.86999130, 25.54999924, 0.00000000
1, 4.0000, 200, 0.42339873, -0.89768136, 0.20806718, 26.84761047, 71.47912598, 0.17522012, 6.91663170, -51.65084076, -6.60335255, 106.47808075, 30.02207947, -50.83503723, -0.43304133, 0.76543194, -0.19211946, -0.43552205, 0.07998926, 0.06648967, 0.02792562, 101.82900238, -41.86999130, 25.54999924, 0.00000000
1, 4.0200, 201, 0.41464952, -0.88254362, 0.15191609, 21.49589348, 61.01937485, 6.08529091, 7.14868641, -51.76441956, -6.30009604, 107.55494690, 29.54426003, -49.55755234, -0.43257508, 0.77139390, -0.19013785, -0.42623717, 0.08221348, 0.05276305, 0.10219166, 101.82900238, -41.86999130, 25.54999924, 0.00000000
1, 4.0400, 202, 0.38358235, -0.86432666, 0.20090517, 35.84564972, 52.89250946, 13.83242321, 6.48153257, -51.48047638, -4.87478685, 108.82127380, 28.94396019, -48.49401093, -0.43033674, 0.77767092, -0.19075614, -0.41671395, 0.10519437, 0.03532389, 0.07079696, 101.82900238, -41.86999130, 25.54999924, 0.00000000
1, 4.0600, 203, 0.38431782, -0.86696255, 0.25317189, 45.70133209, 47.89371490, 15.66153049, 6.97464609, -52.36070633, -4.93544006, 110.15267944, 28.33647537, -47.59948349, -0.42688131, 0.78391808, -0.19259399, -0.40761787, 0.09476650, 0.03964673, 0.04007476, 101.82900238, -41.86999130, 25.54999924, 0.00000000
1, 4.0800, 204, 0.34602445, -0.86420262, 0.29241419, 37.70274734, 46.85914993, 18.15754890, 6.94563866, -53.83721924, -3.87404084, 111.31166077, 27.64569283, -46.74261093, -0.42462340, 0.78944027, -0.19431423, -0.39839828, 0.12374311, 0.03857645, 0.02004601, 101.82900238, -41.86999130, 25.54999924, 0.00000000
1, 4.1000, 205, 0.33848536, -0.86247027, 0.28266060, 35.05025482, 50.94976425, 19.16720009, 6.24948120, -54.29153442, -3.87404084, 112.40992737, 26.92901993, -45.84621429, -0.42284989, 0.79481155, -0.19550163, -0.38891098, 0.11949430, 0.03765404, 0.04885701, 101.82900238, -41.86999130, 25.54999924, 0.00000000
1, 4.1200, 206, 0.38973719, -0.86653149, 0.26473340, 20.70797920, 40.46637726, 13.69555378, 6.77159834, -54.77423859, -2.72166610, 113.12585449, 26.36893845, -45.14118958, -0.42234969, 0.79850262, -0.19579840, -0.38167700, 0.05866847, 0.04255426, 0.08164798, 101.82900238, -41.86999130, 25.54999924, 0.00000000
1, 4.1400, 207, 0.36032692, -0.83037508, 0.30521744, 12.03631687, 29.85828018, 8.19623756, 5.66934967, -56.76185608, -1.96353185, 113.62215424, 26.03845978, -44.59766006, -0.42191210, 0.80117464, -0.19528146, -0.37679520, 0.08037332, 0.00642858, 0.05099810, 101.82900238, -41.86999130, 25.54999924, 0.00000000
1, 4.1600, 208, 0.35508022, -0.81250894, 0.31430069, -0.70706010, 2.63012362, -10.55078602, 6.22047377, -56.53469849, -2.72166610, 113.64839172, 26.23257446, -44.46048737, -0.42146280, 0.80154938, -0.19345130, -0.37744451, 0.08475287, -0.00995788, 0.04638515, 101.82900238, -41.86999130, 25.54999924, 0.00000000
1, 4.1800, 209, 0.36545104, -0.84203523, 0.33226272, -15.87088966, -2.72008204, -20.45344925, 5.20524693, -57.92603302, -2.96427798, 113.38041687, 26.62543488, -44.32156754, -0.42234316, 0.80087924, -0.18965292, -0.37980324, 0.07968790, 0.02104359, 0.02525589, 101.82900238, -41.86999130, 25.54999924, 0.00000000
1, 4.2000, 210, 0.39641824, -0.86803550, 0.32904297, -21.62282562, 3.08601880, -20.41078758, 5.93040800, -59.23218155, -3.08557606, 113.09513092, 26.97639847, -44.05241776, -0.42393276, 0.80033326, -0.18508308, -0.38143417, 0.05469396, 0.04790903, 0.02293226, 101.82900238, -41.86999130, 25.54999924, 0.00000000
1, 4.2200, 211, 0.41846988, -0.87525254, 0.30160892, -14.64876461, 7.50869465, -17.16460800, 6.56855488, -61.41856003, -4.20762825, 112.93446350, 27.24896049, -43.76482773, -0.42500693, 0.80024350, -0.18118188, -0.38229913, 0.03701383, 0.05588158, 0.04647767, 101.82900238, -41.86999130, 25.54999924, 0.00000000
1, 4.2400, 212, 0.41273868, -0.87852883, 0.26792336, -16.19510078, -5.26259422, -21.98353386, 6.39451456, -62.66791534, -4.23795080, 112.65183258, 27.71507835, -43.67734146, -0.42555097, 0.79939884, -0.17729552, -0.38527170, 0.04851000, 0.06056175, 0.07584161, 101.82900238, -41.86999130, 25.54999924, 0.00000000
1, 4.2600, 213, 0.45479670, -0.88436151, 0.24159381, -15.16178036, -15.81623936, -22.64304352, 6.33650351, -64.51356506, -5.42065573, 112.27419281, 28.26074409, -43.83156967, -0.42563611, 0.79782838, -0.17435330, -0.38974983, 0.01439046, 0.06832731, 0.09596210, 101.82900238, -41.86999130, 25.54999924, 0.00000000
1, 4.2800, 214, 0.44905856, -0.90913618, 0.25816724, -18.42770767, -27.19010735, -23.83376503, 7.32272291, -66.47278595, -5.81488800, 111.72769165, 28.90695190, -44.19739532, -0.42576164, 0.79532063, -0.17175740, -0.39584279, 0.02931872, 0.09498019, 0.07091133, 101.82900238, -41.86999130, 25.54999924, 0.00000000
1, 4.3000, 215, 0.51803708, -1.00835133, 0.27707800, -10.10939026, -20.99584770, -21.79423523, 7.43874884, -67.35301208, -6.39107132, 111.44826508, 29.46228027, -44.44248962, -0.42474905, 0.79397786, -0.16966353, -0.40050185, -0.03001505, 0.19644730, 0.04329510, 101.82900238, -41.86999130, 25.54999924, 0.00000000
1, 4.3200, 216, 0.56357753, -1.13391078, 0.35755420, 4.64207172, -10.32785034, -2.91676331, 7.03265715, -68.54558563, -6.66400576, 111.41230774, 29.56537628, -44.65021515, -0.42387894, 0.79354703, -0.17045127, -0.40194067, -0.07019434, 0.32442781, -0.03926199, 101.82900238, -41.86999130, 25.54999924, 0.00000000
1, 4.3400, 217, 0.40582386, -0.90505564, 0.23961721, -11.00608253, -15.87508869, 3.84323001, 7.29371977, -68.71595001, -6.51237726, 111.01271820, 29.63101387, -45.01905823, -0.42509431, 0.79152453, -0.17126136, -0.40429372, 0.08760149, 0.09424489, 0.07520763, 101.82900238, -41.86999130, 25.54999924, 0.00000000
1, 4.3600, 218, 0.37516132, -0.84555125, 0.22107530, -13.14287281, -22.92247581, -8.08924198, 8.10590267, -69.68136597, -7.14921379, 110.53707123, 29.95282745, -45.43770599, -0.42565289, 0.78917837, -0.17081045, -0.40846196, 0.12144937, 0.03405538, 0.08689703, 101.82900238, -41.86999130, 25.54999924, 0.00000000
1, 4.3800, 219, 0.39303118, -0.85010862, 0.25194696, -10.12582016, -15.29405785, -11.42943287, 8.42497444, -69.02829742, -7.51312351, 110.23645020, 30.26614571, -45.66246796, -0.42570409, 0.78777349, -0.16966595, -0.41158548, 0.10879580, 0.03915229, 0.04891240, 101.82900238, -41.86999130, 25.54999924, 0.00000000
1, 4.4000, 220, 0.41687608, -0.84459406, 0.23343270, 0.43140474, -6.40933895, -9.29813385, 8.39596844, -71.07270050, -7.87702560, 110.25475311, 30.49861526, -45.69300461, -0.42456478, 0.78782880, -0.16874073, -0.41303396, 0.08905154, 0.03522285, 0.06481928, 101.82900238, -41.86999130, 25.54999924, 0.00000000
1, 4.4200, 221, 0.44965917, -0.85350472, 0.22699185, 7.80762959, -0.91577899, -7.02950907, 8.97609901, -69.08507538, -7.69507456, 110.44432068, 30.63275719, -45.65776062, -0.42286581, 0.78859848, -0.16848925, -0.41341063, 0.05895816, 0.04612371, 0.07207904, 101.82900238, -41.86999130, 25.54999924, 0.00000000
1, 4.4400, 222, 0.49056399, -0.88751978, 0.23418148, 14.76686478, -3.96728778, -3.67131805, 9.03411102, -69.02829742, -7.17953634, 110.73138428, 30.76041031, -45.69677353, -0.42025071, 0.78961110, -0.16913639, -0.41387996, 0.01969063, 0.08240163, 0.06818248, 101.82900238, -41.86999130, 25.54999924, 0.00000000
1, 4.4600, 223, 0.47800511, -0.87637234, 0.25533280, 13.14927197, -7.12625790, -2.61386395, 8.71503830, -68.85792542, -7.27051973, 110.92128754, 30.86156845, -45.83304214, -0.41805407, 0.79011393, -0.17024201, -0.41469097, 0.03418551, 0.07366452, 0.05015077, 101.82900238, -41.86999130, 25.54999924, 0.00000000
1, 4.4800, 224, 0.45335644, -0.85074222, 0.26035416, 10.90070248, -7.52784586, -3.83927894, 8.71503830, -69.28384399, -7.14921379, 111.06884003, 30.99079895, -45.96577454, -0.41604942, 0.79046518, -0.17102845, -0.41571274, 0.06050968, 0.04984294, 0.04705661, 101.82900238, -41.86999130, 25.54999924, 0.00000000
1, 4.5000, 225, 0.45047653, -0.83977950, 0.26534966, 9.96370602, -9.56192684, -6.11041546, 9.00510406, -68.54558563, -7.60409880, 111.22045898, 31.19244576, -46.09727859, -0.41373318, 0.79083437, -0.17145254, -0.41714513, 0.06592701, 0.04110059, 0.04358094, 101.82900238, -41.86999130, 25.54999924, 0.00000000
1, 4.5200, 226, 0.45091504, -0.83967805, 0.26547375, 9.21265316, -10.66776562, -7.09235620, 9.49821568, -68.91471100, -7.08856058, 111.31357574, 31.40406609, -46.27057266, -0.41162395, 0.79092544, -0.17190357, -0.41886964, 0.06851182, 0.04338180, 0.04453754, 101.82900238, -41.86999130, 25.54999924, 0.00000000
1, 4.5400, 227, 0.44887742, -0.85393405, 0.27766022, 11.91588879, -7.22401953, -6.73463392, 9.46920872, -69.34062958, -7.27051973, 111.56822968, 31.58378983, -46.31685257, -0.40898532, 0.79177862, -0.17223495, -0.41970566, 0.07361860, 0.06004535, 0.03336630, 101.82900238, -41.86999130, 25.54999924, 0.00000000
1, 4.5600, 228, 0.45580301, -0.84815121, 0.30804169, 9.23034763, -0.52639258, -7.41863203, 9.81728745, -70.87393188, -7.24018908, 111.77436829, 31.73060036, -46.26795959, -0.40715805, 0.79259235, -0.17190216, -0.42008266, 0.06894464, 0.05711204, 0.00643573, 101.82900238, -41.86999130, 25.54999924, 0.00000000
1, 4.5800, 229, 0.47838235, -0.85352767, 0.27680495, 4.72019482, -6.30582285, -8.58167648, 9.73026943, -68.23323822, -6.57302237, 111.82771301, 31.93738174, -46.33926773, -0.40570724, 0.79268038, -0.17153564, -0.42146778, 0.04905053, 0.06478841, 0.03895483, 101.82900238, -41.86999130, 25.54999924, 0.00000000
1, 4.6000, 230, 0.47194234, -0.83993381, 0.27225477, 5.08712959, -9.53483009, -7.30809927, 10.02033329, -68.43200684, -7.17953634, 111.89269257, 32.16782379, -46.45442581, -0.40391669, 0.79274148, -0.17139538, -0.42312646, 0.05877554, 0.05331311, 0.04328480, 101.82900238, -41.86999130, 25.54999924, 0.00000000
1, 4.6200, 231, 0.46672809, -0.83833587, 0.29269701, 6.04841948, -7.54013157, -6.42703009, 9.17914486, -68.37522125, -7.05823803, 111.95484161, 32.34036636, -46.55167770, -0.40243882, 0.79281586, -0.17141730, -0.42438453, 0.06703580, 0.05385114, 0.02302318, 101.82900238, -41.86999130, 25.54999924, 0.00000000
1, 4.6400, 232, 0.47297964, -0.83436912, 0.32504648, 0.89525741, -1.07823825, -6.69982767, 9.46920872, -69.19866180, -6.42140198, 112.13101196, 32.50212479, -46.42327881, -0.40104905, 0.79362363, -0.17035604, -0.42461756, 0.06296386, 0.05144265, -0.00915025, 101.82900238, -41.86999130, 25.54999924, 0.00000000
1, 4.6600, 233, 0.47699782, -0.83534700, 0.32000557, 0.03049344, -0.14566939, -6.25783205, 9.09212399, -68.48879242, -6.84595680, 112.16165161, 32.61471176, -46.36972046, -0.40058586, 0.79380745, -0.16952477, -0.42504349, 0.06123030, 0.05472287, -0.00230106, 101.82900238, -41.86999130, 25.54999924, 0.00000000
1, 4.6800, 234, 0.46860832, -0.83234537, 0.32990822, 1.82863843, 4.52850485, -3.18351483, 8.65702534, -68.37522125, -5.99683905, 112.27571106, 32.63278580, -46.23283768, -0.40023071, 0.79440767, -0.16890705, -0.42450264, 0.07068936, 0.05267382, -0.01167846, 101.82900238, -41.86999130, 25.54999924, 0.00000000
1, 4.7000, 235, 0.45484197, -0.81722397, 0.35949680, 2.38290358, 12.24948883, -1.83460367, 8.94709110, -69.08507538, -5.36000252, 112.57965088, 32.57948685, -45.88156891, -0.39963177, 0.79598725, -0.16786361, -0.42251694, 0.08406656, 0.03860286, -0.03805534, 101.82900238, -41.86999130, 25.54999924, 0.00000000
1, 4.7200, 236, 0.46605855, -0.81692165, 0.37445265, 0.21570888, 14.59584808, -2.74627042, 8.62802029, -69.34062958, -4.93544006, 112.76573181, 32.51855087, -45.53554535, -0.39985240, 0.79714555, -0.16645177, -0.42067900, 0.07192725, 0.03914297, -0.04944325, 101.82900238, -41.86999130, 25.54999924, 0.00000000
1, 4.7400, 237, 0.46994337, -0.81625801, 0.38874152, -2.57661676, 16.77368927, -3.68646383, 7.87384748, -70.95911407, -4.02566910, 112.99981689, 32.46986771, -45.09164429, -0.40003952, 0.79860818, -0.16446443, -0.41850340, 0.06715949, 0.03892845, -0.06120706, 101.82900238, -41.86999130, 25.54999924, 0.00000000
1, 4.7600, 238, 0.48198968, -0.80046237, 0.34953538, -3.90895486, 20.93377876, -4.74468231, 6.62656546, -70.61838531, -3.51013875, 113.19088745, 32.39493942, -44.58899689, -0.40082988, 0.80000061, -0.16203207, -0.41602883, 0.05428338, 0.02404298, -0.01850129, 101.82900238, -41.86999130, 25.54999924, 0.00000000
1, 4.7800, 239, 0.52122921, -0.80131906, 0.27337837, -5.59151602, 15.91299057, -7.52930021, 6.24948120, -71.12947845, -2.53971505, 113.29548645, 32.41310501, -44.18270111, -0.40150118, 0.80093431, -0.15948156, -0.41456825, 0.01451575, 0.02554245, 0.06000988, 101.82900238, -41.86999130, 25.54999924, 0.00000000
1, 4.8000, 240, 0.53763163, -0.81664938, 0.23472078, -5.79154634, 10.09804916, -7.61579418, 5.95941544, -71.95292664, -1.11441410, 113.34332275, 32.52397919, -43.89111710, -0.40179220, 0.80148655, -0.15705775, -0.41414386, -0.00073185, 0.04192392, 0.09925317, 101.82900238, -41.86999130, 25.54999924, 0.00000000
1, 4.8200, 241, 0.54404104, -0.82600164, 0.22690135, -4.90040064, 7.62320566, -5.74001884, 5.66934967, -72.12329865, -0.68985128, 113.35782623, 32.56775665, -43.67145538, -0.40231529, 0.80182898, -0.15535311, -0.41361582, -0.00602833, 0.05213922, 0.10728292, 101.82900238, -41.86999130, 25.54999924, 0.00000000
1, 4.8400, 242, 0.55138254, -0.82343906, 0.20523912, -9.34786701, 4.86006641, -4.70301676, 5.40829086, -72.88994598, 0.12894394, 113.22680664, 32.70081711, -43.54384232, -0.40318066, 0.80151504, -0.15331700, -0.41414145, -0.01274820, 0.04968099, 0.12818447, 101.82900238, -41.86999130, 25.54999924, 0.00000000
1, 4.8600, 243, 0.52540362, -0.82518476, 0.22748658, -7.67228651, 4.16834259, -2.87534451, 5.64034605, -73.82696533, 1.03870666, 113.14022064, 32.71997452, -43.41724014, -0.40416995, 0.80137491, -0.15202214, -0.41392559, 0.01502777, 0.05170832, 0.10367512, 101.82900238, -41.86999130, 25.54999924, 0.00000000
1, 4.8800, 244, 0.49894789, -0.82116920, 0.25746110, -9.20627880, 9.24108887, -5.42524433, 5.75637150, -74.90596008, 2.55499125, 113.09697723, 32.74637985, -43.15901566, -0.40530306, 0.80155694, -0.14992681, -0.41322878, 0.04178333, 0.04749328, 0.07274395, 101.82900238, -41.86999130, 25.54999924, 0.00000000
1, 4.9000, 245, 0.50515157, -0.83352071, 0.25475779, -8.87607670, 10.18147564, -5.21814394, 5.08922148, -76.60963440, 2.91890097, 113.07086945, 32.79862213, -42.89562607, -0.40623504, 0.80179518, -0.14772642, -0.41264349, 0.03618412, 0.06009752, 0.07504833, 101.82900238, -41.86999130, 25.54999924, 0.00000000
1, 4.9200, 246, 0.49853197, -0.84052062, 0.26393977, -14.99529839, 6.96559095, -5.04047585, 5.40829086, -77.06394196, 3.28281093, 112.87191010, 32.83950806, -42.69783783, -0.40818289, 0.80133188, -0.14542001, -0.41244054, 0.04339837, 0.06682330, 0.06424236, 101.82900238, -41.86999130, 25.54999924, 0.00000000
1, 4.9400, 247, 0.51333094, -0.84078598, 0.23160733, -16.25225639, 5.70291758, -5.21937370, 6.80060577, -79.27871704, 4.31387949, 112.64160156, 32.93127060, -42.53853989, -0.41001692, 0.80068874, -0.14301243, -0.41271189, 0.02937156, 0.06621132, 0.09321179, 101.82900238, -41.86999130, 25.54999924, 0.00000000
1, 4.9600, 248, 0.51684821, -0.83364844, 0.20119292, -7.88141680, 6.17557240, -3.59281373, 6.68458033, -78.85279846, 4.95071602, 112.58725739, 32.95013046, -42.37121201, -0.41092733, 0.80069739, -0.14155197, -0.41229305, 0.02694287, 0.05884290, 0.12124725, 101.82900238, -41.86999130, 25.54999924, 0.00000000
1, 4.9800, 249, 0.49941236, -0.83183557, 0.25391722, -3.71200180, 7.74030924, -3.97715139, 7.17769003, -80.58486176, 6.19407368, 112.62102509, 32.96455383, -42.15961838, -0.41139734, 0.80107504, -0.14012139, -0.41157883, 0.04461219, 0.05723745, 0.06862724, 101.82900238, -41.86999130, 25.54999924, 0.00000000
1, 5.0000, 250, 0.50058270, -0.83040810, 0.27502796, -9.20005131, 9.43024635, -4.95068264, 7.96086979, -81.23793793, 6.95220804, 112.59705353, 33.01259232, -41.90842819, -0.41228488, 0.80128127, -0.13803543, -0.41099364, 0.04390982, 0.05616415, 0.04757719, 101.82900238, -41.86999130, 25.54999924, 0.00000000
1, 5.0200, 251, 0.50836039, -0.82145822, 0.26181823, -10.95760345, 7.09527397, -5.26100111, 9.58523560, -82.71445465, 7.89230919, 112.48926544, 33.05733871, -41.70864868, -0.41358608, 0.80111969, -0.13602504, -0.41067150, 0.03674347, 0.04715985, 0.05962190, 101.82900238, -41.86999130, 25.54999924, 0.00000000
1, 5.0400, 252, 0.52663332, -0.81983799, 0.23133087, -6.99727774, 4.03913736, -4.89353466, 9.84629440, -83.85022736, 7.89230919, 112.42894745, 33.20693207, -41.60493088, -0.41381648, 0.80098248, -0.13432361, -0.41126683, 0.01928650, 0.04549099, 0.08860391, 101.82900238, -41.86999130, 25.54999924, 0.00000000
1, 5.0600, 253, 0.52611405, -0.82211441, 0.23748694, -0.58222681, 2.62172246, -3.76214314, 11.35463524, -85.35514069, 10.10607529, 112.46726990, 33.25772476, -41.51380539, -0.41368446, 0.80121255, -0.13356586, -0.41119808, 0.02191295, 0.04902468, 0.08188545, 101.82900238, -41.86999130, 25.54999924, 0.00000000
1, 5.0800, 254, 0.51662493, -0.81527966, 0.26199350, -1.15863121, 1.95634472, -4.24053764, 14.42932987, -88.67729950, 11.86496353, 112.48821259, 33.32077026, -41.42959976, -0.41360310, 0.80136710, -0.13273184, -0.41124859, 0.03224435, 0.04288527, 0.05761442, 101.82900238, -41.86999130, 25.54999924, 0.00000000
1, 5.1000, 255, 0.50316066, -0.81665480, 0.28862721, -5.32506371, 4.00430393, -5.47430801, 15.50257111, -89.13161469, 11.92561626, 112.50237274, 33.43469238, -41.28078079, -0.41361025, 0.80155438, -0.13116297, -0.41137990, 0.04698503, 0.04520763, 0.03107331, 101.82900238, -41.86999130, 25.54999924, 0.00000000
1, 5.1200, 256, 0.51193601, -0.81893277, 0.26833725, -11.04334736, 5.81031990, -8.14432812, 17.38799858, -92.22662354, 13.22961998, 112.39041138, 33.54211044, -41.07931137, -0.41471368, 0.80134368, -0.12880589, -0.41142446, 0.03980905, 0.04812172, 0.05013931, 101.82900238, -41.86999130, 25.54999924, 0.00000000
1, 5.1400, 257, 0.52684277, -0.82817644, 0.22620900, -10.82397270, 3.15637970, -7.82359362, 19.47646904, -93.53276825, 14.20004368, 112.25897980, 33.70806503, -40.95539093, -0.41545600, 0.80095029, -0.12662226, -0.41211885, 0.02659846, 0.05768172, 0.09008231, 101.82900238, -41.86999130, 25.54999924, 0.00000000
1, 5.1600, 258, 0.52883345, -0.83269447, 0.22106814, -6.20711088, 4.16039467, -5.82125950, 22.98626137, -95.54878235, 16.11055565, 112.22357941, 33.78237152, -40.80614471, -0.41596195, 0.80096012, -0.12507311, -0.41206241, 0.02671140, 0.06300556, 0.09349314, 101.82900238, -41.86999130, 25.54999924, 0.00000000
1, 5.1800, 259, 0.53080571, -0.83060539, 0.20869043, -1.20385528, 7.27005196, -4.41153383, 26.03195000, -97.19566345, 18.50628090, 112.31569672, 33.80767059, -40.60224533, -0.41595587, 0.80150700, -0.12384948, -0.41137421, 0.02546461, 0.06153734, 0.10610712, 101.82900238, -41.86999130, 25.54999924, 0.00000000
1, 5.2000, 260, 0.52560765, -0.83138919, 0.20572186, -0.07941856, 7.82414770, -3.85690999, 28.99061966, -97.90551758, 18.96116638, 112.40464020, 33.87343597, -40.43053818, -0.41570452, 0.80198997, -0.12263259, -0.41105121, 0.03136532, 0.06329351, 0.11020501, 101.82900238, -41.86999130, 25.54999924, 0.00000000
1, 5.2200, 261, 0.51515353, -0.83407378, 0.21902668, 0.33353600, 7.05397511, -2.66902161, 34.15378571, -100.06350708, 21.05363464, 112.51235199, 33.86848450, -40.24832153, -0.41562185, 0.80257690, -0.12176802, -0.41024554, 0.04217571, 0.06676264, 0.09817613, 101.82900238, -41.86999130, 25.54999924, 0.00000000
1, 5.2400, 262, 0.51593244, -0.83773905, 0.21379066, 1.62240863, 7.46124029, -2.26231050, 37.19947433, -100.65979767, 22.41828918, 112.62783813, 33.89968109, -40.08753967, -0.41527221, 0.80315357, -0.12089632, -0.40972871, 0.04124891, 0.07098592, 0.10501709, 101.82900238, -41.86999130, 25.54999924, 0.00000000
1, 5.2600, 263, 0.50981224, -0.82917577, 0.20220408, 2.30078387, 6.25723362, -3.52704763, 43.20383072, -100.83016205, 22.87317467, 112.76560974, 33.92196274, -39.91666031, -0.41483426, 0.80382311, -0.12007736, -0.40909964, 0.04798258, 0.06349850, 0.11811310, 101.82900238, -41.86999130, 25.54999924, 0.00000000
1, 5.2800, 264, 0.51439577, -0.85382152, 0.20638332, -1.37328434, 3.09770918, -5.89003038, 46.56858826, -101.25608063, 22.29698753, 112.80140686, 34.00621796, -39.79686356, -0.41469944, 0.80404216, -0.11893775, -0.40913880, 0.04426375, 0.08919410, 0.11493301, 101.82900238, -41.86999130, 25.54999924, 0.00000000
1, 5.3000, 265, 0.49718609, -0.84954846, 0.22212943, -4.28591108, 0.62609154, -4.99051332, 53.26910400, -101.00052643, 20.87168312, 112.71956635, 34.10202026, -39.75482559, -0.41506985, 0.80374813, -0.11786498, -0.40965101, 0.06277667, 0.08557715, 0.09847808, 101.82900238, -41.86999130, 25.54999924, 0.00000000
1, 5.3200, 266, 0.48591706, -0.84632194, 0.20926329, -4.65546131, -1.29022515, -4.12175846, 57.82313156, -98.70056915, 17.29325676, 112.63284302, 34.18535614, -39.74573135, -0.41540256, 0.80340713, -0.11706814, -0.41021088, 0.07539848, 0.08269092, 0.10978591, 101.82900238, -41.86999130, 25.54999924, 0.00000000
1, 5.3400, 267, 0.48474333, -0.84873015, 0.21358219, -4.04743958, -0.87321907, -2.72337747, 59.99862289, -97.70676422, 16.56544113, 112.43740082, 34.16135025, -39.76816559, -0.41678056, 0.80268484, -0.11664755, -0.41034669, 0.07756446, 0.08525255, 0.10408409, 101.82900238, -41.86999130, 25.54999924, 0.00000000
1, 5.3600, 268, 0.47653201, -0.85959977, 0.23253326, -2.04613495, 2.67948532, -1.60703981, 64.43663025, -94.81051636, 12.80505657, 112.44435120, 34.16873932, -39.68706512, -0.41699490, 0.80278927, -0.11606675, -0.41008916, 0.08509722, 0.09481631, 0.08318625, 101.82900238, -41.86999130, 25.54999924, 0.00000000
1, 5.3800, 269, 0.46949038, -0.86138254, 0.24438539, 0.54896766, 6.66900158, -1.60926116, 65.62590027, -92.99327087, 10.86421776, 112.55490875, 34.14571381, -39.52008820, -0.41690195, 0.80337024, -0.11540882, -0.40923077, 0.09201661, 0.09683184, 0.07211428, 101.82900238, -41.86999130, 25.54999924, 0.00000000
1, 5.4000, 270, 0.47137961, -0.86135185, 0.24305972, 3.41306829, 8.02520466, -1.01292956, 67.04721832, -89.69950867, 6.95220804, 112.73731232, 34.06826782, -39.29385376, -0.41671371, 0.80429554, -0.11486498, -0.40775546, 0.08935943, 0.09718396, 0.07571673, 101.82900238, -41.86999130, 25.54999924, 0.00000000
1, 5.4200, 271, 0.47856385, -0.85053384, 0.22636107, 5.89037180, 5.83270502, 0.49618745, 68.26549530, -89.27359009, 5.61788273, 112.91744995, 34.01590347, -39.17792892, -0.41605267, 0.80509013, -0.11495627, -0.40683559, 0.08120078, 0.08683499, 0.09523984, 101.82900238, -41.86999130, 25.54999924, 0.00000000
1, 5.4400, 272, 0.47656649, -0.84315032, 0.25273472, 4.34694242, 1.82894063, 1.01798892, 68.84562683, -84.36132813, 2.00913024, 113.07469940, 33.94707489, -39.06489563, -0.41559982, 0.80580598, -0.11506720, -0.40584868, 0.08265017, 0.07984155, 0.07074070, 101.82900238, -41.86999130, 25.54999924, 0.00000000
1, 5.4600, 273, 0.48461965, -0.84263754, 0.29795507, 9.75427723, 7.60173273, 3.71437073, 68.26549530, -81.72064209, -1.38734055, 113.35892487, 33.81305695, -38.92150116, -0.41459507, 0.80704266, -0.11573802, -0.40422505, 0.07299376, 0.07962819, 0.02897421, 101.82900238, -41.86999130, 25.54999924, 0.00000000
1, 5.4800, 274, 0.48216337, -0.83004141, 0.28315639, 10.13347340, 12.51378155, 2.09122300, 67.16323853, -81.29473114, -2.75199652, 113.69660950, 33.68026352, -38.66233063, -0.41360837, 0.80858833, -0.11576589, -0.40213370, 0.07323104, 0.06765644, 0.04896451, 101.82900238, -41.86999130, 25.54999924, 0.00000000
1, 5.5000, 275, 0.49294096, -0.83352375, 0.25783798, 9.48619556, 13.68858051, -0.80954742, 67.04721832, -78.28490448, -4.78381157, 114.07787323, 33.57672119, -38.30337524, -0.41254464, 0.81037563, -0.11508197, -0.39981824, 0.06088742, 0.07214705, 0.07917451, 101.82900238, -41.86999130, 25.54999924, 0.00000000
1, 5.5200, 276, 0.49675220, -0.83621818, 0.24206325, 3.05904746, 9.98063278, -4.20910597, 66.03198242, -75.61582184, -5.57227612, 114.26893616, 33.58138275, -38.05249786, -0.41205016, 0.81131130, -0.11394928, -0.39875346, 0.05608076, 0.07617866, 0.09957276, 101.82900238, -41.86999130, 25.54999924, 0.00000000
1, 5.5400, 277, 0.48810068, -0.83318299, 0.23606466, -1.99362957, 1.48629642, -7.67039442, 64.69768524, -72.32205200, -8.75647354, 114.28208923, 33.70272827, -37.88309097, -0.41211236, 0.81146133, -0.11219168, -0.39888236, 0.06585602, 0.07433813, 0.10640599, 101.82900238, -41.86999130, 25.54999924, 0.00000000
1, 5.5600, 278, 0.47546589, -0.83397675, 0.25929928, -0.30456915, -2.65849209, -7.66743422, 64.00152588, -71.21466827, -10.42438602, 114.29808807, 33.85995102, -37.85860443, -0.41152197, 0.81145698, -0.11129167, -0.39975160, 0.08066420, 0.07633348, 0.08230792, 101.82900238, -41.86999130, 25.54999924, 0.00000000
1, 5.5800, 279, 0.46504006, -0.84473008, 0.29289278, 7.07945681, 6.23869514, -3.70555615, 62.00007629, -69.42581177, -11.88000965, 114.55111694, 33.86495590, -37.67621231, -0.41034669, 0.81253839, -0.11085610, -0.39888340, 0.09243254, 0.08867414, 0.05003986, 101.82900238, -41.86999130, 25.54999924, 0.00000000
1, 5.6000, 280, 0.46994060, -0.86071086, 0.29171419, 5.86569929, 7.74317265, -0.56544936, 59.91160202, -66.21723938, -14.18475914, 114.77569580, 33.77016068, -37.42618561, -0.40995905, 0.81363773, -0.11033174, -0.39718264, 0.08648895, 0.10582662, 0.05546700, 101.82900238, -41.86999130, 25.54999924, 0.00000000
1, 5.6200, 281, 0.46289390, -0.84676749, 0.27871042, -1.54273033, -5.24486828, 0.29098886, 59.04140472, -65.81970978, -14.57899952, 114.66860199, 33.81501007, -37.55722809, -0.41010511, 0.81310242, -0.11066830, -0.39803377, 0.09314615, 0.09189944, 0.06913065, 101.82900238, -41.86999130, 25.54999924, 0.00000000
1, 5.6400, 282, 0.44546857, -0.83843994, 0.31684020, 1.14656305, -11.42491627, 0.56257099, 56.45982361, -64.62714386, -16.67146683, 114.62013245, 33.83612823, -37.70043564, -0.40987581, 0.81277823, -0.11141108, -0.39872426, 0.11165474, 0.08340453, 0.02889799, 101.82900238, -41.86999130, 25.54999924, 0.00000000
1, 5.6600, 283, 0.44990849, -0.84710944, 0.32926238, 2.12942219, -11.80847263, 2.37472701, 54.80644989, -63.54814529, -18.15742111, 114.49861145, 33.88958740, -37.98685455, -0.40954772, 0.81203365, -0.11275276, -0.40019849, 0.10734200, 0.09193034, 0.01595658, 101.82900238, -41.86999130, 25.54999924, 0.00000000
1, 5.6800, 284, 0.44576693, -0.84271455, 0.33066002, -2.97488451, -13.22789764, 3.36408138, 53.29810715, -62.01484299, -19.06719208, 114.25335693, 33.93882370, -38.30890656, -0.40998018, 0.81081140, -0.11392995, -0.40189704, 0.11214751, 0.08686323, 0.01200514, 101.82900238, -41.86999130, 25.54999924, 0.00000000
1, 5.7000, 285, 0.45081216, -0.84842402, 0.32601377, -6.09706354, -11.94066048, 1.79278958, 50.91957474, -62.49755096, -20.58347702, 114.03114319, 33.95862198, -38.49541473, -0.41082501, 0.80981928, -0.11436973, -0.40290827, 0.10761128, 0.09144884, 0.01332577, 101.82900238, -41.86999130, 25.54999924, 0.00000000
1, 5.7200, 286, 0.47564942, -0.85714006, 0.26999331, -8.87604618, -12.39997864, 2.50548434, 50.74553299, -62.58273315, -20.03761673, 113.68358612, 34.01131439, -38.79574585, -0.41202942, 0.80824411, -0.11500175, -0.40465796, 0.08334891, 0.09887439, 0.06549493, 101.82900238, -41.86999130, 25.54999924, 0.00000000
1, 5.7400, 287, 0.48333731, -0.84391963, 0.24238726, -6.64161587, -12.68535423, 5.21624565, 47.55481339, -62.78149033, -21.70552063, 113.39241028, 33.99711227, -39.05730820, -0.41320831, 0.80693901, -0.11588676, -0.40580627, 0.07613032, 0.08391248, 0.08834517, 101.82900238, -41.86999130, 25.54999924, 0.00000000
1, 5.7600, 288, 0.48777828, -0.83992738, 0.24626994, -2.24007893, -13.54554844, 6.83840656, 46.91666794, -63.43457031, -21.49323845, 113.14842224, 33.97632599, -39.42545700, -0.41369519, 0.80569315, -0.11771639, -0.40725657, 0.07125413, 0.07820732, 0.08124267, 101.82900238, -41.86999130, 25.54999924, 0.00000000
1, 5.7800, 289, 0.47301975, -0.84125644, 0.27391642, 1.29098332, -13.06522369, 8.85203743, 44.27707291, -62.72470856, -22.73659706, 112.96695709, 33.91554260, -39.79315186, -0.41388541, 0.80468321, -0.11996119, -0.40840325, 0.08543456, 0.07795683, 0.05089437, 101.82900238, -41.86999130, 25.54999924, 0.00000000
1, 5.8000, 290, 0.47507918, -0.83698535, 0.30051646, -0.33208215, -8.99899673, 7.19885302, 42.94277191, -63.03705215, -22.46366310, 112.88191223, 33.81782532, -39.94676971, -0.41429567, 0.80425519, -0.12123081, -0.40845543, 0.08213674, 0.07220820, 0.02294300, 101.82900238, -41.86999130, 25.54999924, 0.00000000
1, 5.8200, 291, 0.48933625, -0.82995409, 0.29457554, 1.01310992, -7.46628952, 6.98246336, 40.82529068, -64.22961426, -21.97845459, 112.76808167, 33.74676132, -40.17840958, -0.41453108, 0.80362546, -0.12280979, -0.40898409, 0.06671353, 0.06392097, 0.02791730, 101.82900238, -41.86999130, 25.54999924, 0.00000000
1, 5.8400, 292, 0.48775649, -0.81221133, 0.31515890, -3.57143855, -7.37515068, 6.03137684, 37.75059891, -63.91727448, -22.58496857, 112.65994263, 33.68513870, -40.28793335, -0.41512674, 0.80314004, -0.12350395, -0.40912417, 0.06734066, 0.04471248, 0.00548428, 101.82900238, -41.86999130, 25.54999924, 0.00000000
1, 5.8600, 293, 0.49066955, -0.81198019, 0.33772388, -6.98582220, -6.25150585, 4.85329103, 36.67735291, -64.00245667, -22.55463791, 112.41287994, 33.64495087, -40.46870804, -0.41636050, 0.80206341, -0.12409142, -0.40980443, 0.06364309, 0.04327833, -0.01860933, 101.82900238, -41.86999130, 25.54999924, 0.00000000
1, 5.8800, 294, 0.49417314, -0.80932128, 0.34372032, -12.59349537, -5.69777060, 1.54901779, 35.51709366, -66.95549011, -22.40300941, 112.07663727, 33.66459274, -40.60694122, -0.41814387, 0.80068266, -0.12375414, -0.41078961, 0.05989408, 0.03886313, -0.02843898, 101.82900238, -41.86999130, 25.54999924, 0.00000000
1, 5.9000, 295, 0.51872087, -0.81580365, 0.29707682, -16.31832314, -6.41972971, -2.55481839, 34.55987930, -65.67773438, -22.28171158, 111.73789978, 33.76960754, -40.65615463, -0.41994023, 0.79935503, -0.12234478, -0.41196314, 0.03632667, 0.04409501, 0.01338502, 101.82900238, -41.86999130, 25.54999924, 0.00000000
1, 5.9200, 296, 0.54252183, -0.81214225, 0.26393044, -18.38403130, -5.58458519, -3.02203369, 33.25458145, -66.95549011, -22.34236526, 111.31135559, 33.86559677, -40.75358200, -0.42220274, 0.79765218, -0.12099475, -0.41334754, 0.01403652, 0.03931266, 0.04098691, 101.82900238, -41.86999130, 25.54999924, 0.00000000
1, 5.9400, 297, 0.55914271, -0.80581021, 0.21871881, -17.98509026, -3.99634886, -1.62619054, 32.84848785, -67.40980530, -22.34236526, 110.93897247, 33.96501923, -40.76525879, -0.42437786, 0.79623216, -0.11921843, -0.41437271, -0.00142548, 0.03144777, 0.08013264, 101.82900238, -41.86999130, 25.54999924, 0.00000000
1, 5.9600, 298, 0.56576627, -0.80158955, 0.19288334, -12.44685173, -4.42168188, 0.37639600, 32.18133926, -67.80732727, -22.82757378, 110.64194489, 33.98655319, -40.86730576, -0.42598990, 0.79501736, -0.11874045, -0.41518757, -0.00686465, 0.02627710, 0.10125667, 101.82900238, -41.86999130, 25.54999924, 0.00000000
1, 5.9800, 299, 0.56304538, -0.80484635, 0.20620635, -7.47438383, -2.52658248, 0.80866039, 29.80280304, -67.55177307, -22.55463791, 110.46092987, 33.98986053, -40.93136597, -0.42700055, 0.79427636, -0.11851136, -0.41563296, -0.00402671, 0.02842506, 0.08477104, 101.82900238, -41.86999130, 25.54999924, 0.00000000
1, 6.0000, 300, 0.56878096, -0.80305558, 0.19171438, -3.57422781, -4.77746582, 0.39124840, 30.15088081, -68.00609589, -22.37268829, 110.35378265, 34.11311722, -40.93774033, -0.42725629, 0.79383337, -0.11752614, -0.41649550, -0.00880985, 0.02654340, 0.09718052, 101.82900238, -41.86999130, 25.54999924, 0.00000000
1, 6.0200, 301, 0.56303453, -0.81159520, 0.20977178, -0.39242283, -9.22847843, 0.26945212, 29.51273727, -67.69374847, -22.31203461, 110.22663879, 34.17364120, -41.15241241, -0.42712688, 0.79312062, -0.11823502, -0.41778353, -0.00180629, 0.03529574, 0.07725065, 101.82900238, -41.86999130, 25.54999924, 0.00000000
1, 6.0400, 302, 0.55096638, -0.81249011, 0.21844982, 1.61788905, -11.59699154, -0.72106254, 29.80280304, -67.97769165, -22.37268829, 110.17168427, 34.30324936, -41.31793594, -0.42641211, 0.79270709, -0.11850461, -0.41921943, 0.01139177, 0.03629797, 0.06664449, 101.82900238, -41.86999130, 25.54999924, 0.00000000
1, 6.0600, 303, 0.54136986, -0.81214458, 0.22225361, 2.48905563, -9.24524975, -2.27091789, 28.78757286, -67.89250946, -22.91854858, 110.11813354, 34.40747070, -41.50407410, -0.42570469, 0.79228491, -0.11905246, -0.42057899, 0.02297431, 0.03707923, 0.06198073, 101.82900238, -41.86999130, 25.54999924, 0.00000000
1, 6.0800, 304, 0.53052884, -0.82665974, 0.22292970, 2.71187782, -5.10192919, -1.73631752, 29.10664558, -68.48879242, -22.76692009, 110.11367035, 34.47250748, -41.60502625, -0.42511711, 0.79214466, -0.11939482, -0.42133972, 0.03506868, 0.05228634, 0.06069874, 101.82900238, -41.86999130, 25.54999924, 0.00000000
1, 6.1000, 305, 0.52070433, -0.83270562, 0.22301663, 2.61877346, -6.07871485, 0.59929913, 29.54174423, -67.52338409, -22.55463791, 110.14267731, 34.51497650, -41.64342117, -0.42461339, 0.79220009, -0.11954553, -0.42170081, 0.04563614, 0.05890979, 0.06070546, 101.82900238, -41.86999130, 25.54999924, 0.00000000
1, 6.1200, 306, 0.51442409, -0.83634996, 0.21985292, 1.77870059, -8.87775230, 0.37339854, 29.51273727, -67.32462311, -23.25212860, 110.06065369, 34.57162094, -41.85435104, -0.42418650, 0.79165936, -0.12040538, -0.42289940, 0.05256513, 0.06281216, 0.06327664, 101.82900238, -41.86999130, 25.54999924, 0.00000000
1, 6.1400, 307, 0.50662988, -0.84337944, 0.21285234, 2.96304226, -10.92019558, -0.07473294, 29.30969048, -67.01227570, -22.97920227, 110.02014160, 34.65103912, -42.02011108, -0.42354941, 0.79131299, -0.12098595, -0.42401916, 0.06134913, 0.07005802, 0.06888096, 101.82900238, -41.86999130, 25.54999924, 0.00000000
1, 6.1600, 308, 0.50839096, -0.84245265, 0.20498529, 2.79367805, -9.64884186, -0.34089768, 29.86081505, -67.80732727, -22.73659706, 109.95232391, 34.72018814, -42.23699951, -0.42294797, 0.79081386, -0.12187053, -0.42529532, 0.06074325, 0.06972514, 0.07604541, 101.82900238, -41.86999130, 25.54999924, 0.00000000
1, 6.1800, 309, 0.51148123, -0.84013718, 0.21309124, 2.34818387, -10.01383209, 1.78011405, 29.68677521, -67.69374847, -23.52506256, 109.85695648, 34.75352478, -42.48399734, -0.42255926, 0.79018945, -0.12304563, -0.42650238, 0.05835754, 0.06749600, 0.06674666, 101.82900238, -41.86999130, 25.54999924, 0.00000000
1, 6.2000, 310, 0.50464243, -0.83871257, 0.21907851, 0.25204709, -11.56768990, 2.85888076, 29.83180809, -68.46040344, -23.58571434, 109.74053955, 34.78130341, -42.69490433, -0.42246819, 0.78952599, -0.12392006, -0.42756671, 0.06556474, 0.06582125, 0.05931436, 101.82900238, -41.86999130, 25.54999924, 0.00000000
1, 6.2200, 311, 0.50785071, -0.84083420, 0.21772662, -1.93829358, -15.97905636, 1.28934002, 30.09286690, -68.00609589, -23.19148254, 109.47560883, 34.86756516, -43.07768631, -0.42252454, 0.78811324, -0.12511134, -0.42976472, 0.06313615, 0.06755681, 0.05798211, 101.82900238, -41.86999130, 25.54999924, 0.00000000
1, 6.2400, 312, 0.49740446, -0.84138316, 0.24014539, -9.40154743, -17.60260010, -0.46273690, 29.62876320, -67.80732727, -23.31278038, 109.08589172, 35.00024796, -43.42831421, -0.42336398, 0.78626376, -0.12535554, -0.43224800, 0.07514407, 0.06746368, 0.03047276, 101.82900238, -41.86999130, 25.54999924, 0.00000000
1, 6.2600, 313, 0.51076144, -0.83794796, 0.19782880, -13.75715923, -17.98558617, -5.23585844, 29.42571640, -67.32462311, -23.94961739, 108.59379578, 35.21918106, -43.80476379, -0.42444867, 0.78399086, -0.12491359, -0.43542892, 0.06428010, 0.06367902, 0.06642657, 101.82900238, -41.86999130, 25.54999924, 0.00000000
1, 6.2800, 314, 0.52030826, -0.84510624, 0.16393457, -12.62862968, -19.52127075, -6.50250626, 29.77379608, -67.63695526, -24.52580833, 108.10806274, 35.46599197, -44.21326447, -0.42523044, 0.78170401, -0.12453910, -0.43887141, 0.05814847, 0.07086863, 0.09285296, 101.82900238, -41.86999130, 25.54999924, 0.00000000
1, 6.3000, 315, 0.51264089, -0.84543836, 0.18372041, -13.33125877, -19.41233444, -5.46630001, 29.42571640, -67.94929504, -24.40450287, 107.62059784, 35.68664551, -44.57967377, -0.42626208, 0.77946317, -0.12398224, -0.44200283, 0.06924679, 0.07139289, 0.06579208, 101.82900238, -41.86999130, 25.54999924, 0.00000000
1, 6.3200, 316, 0.51954937, -0.83382255, 0.19060421, -18.08282661, -12.65584755, -6.09809875, 29.04863167, -68.68755341, -24.98069382, 107.11021423, 35.87919235, -44.83134079, -0.42798251, 0.77726537, -0.12268336, -0.44456545, 0.06516023, 0.05955886, 0.05152466, 101.82900238, -41.86999130, 25.54999924, 0.00000000
1, 6.3400, 317, 0.53314674, -0.84167349, 0.17260669, -21.10178757, -14.65131664, -5.87899160, 30.00584793, -68.46040344, -25.22329712, 106.51710510, 36.08366013, -45.11673355, -0.43006355, 0.77471918, -0.12120360, -0.44739842, 0.05431495, 0.06705166, 0.06158197, 101.82900238, -41.86999130, 25.54999924, 0.00000000
1, 6.3600, 318, 0.53022283, -0.83628875, 0.17704126, -27.68748093, -21.14829445, -6.83710098, 29.25167847, -67.15425873, -26.49697876, 105.68179321, 36.33633041, -45.57830811, -0.43286163, 0.77106923, -0.11966737, -0.45140100, 0.06042804, 0.06109969, 0.04701998, 101.82900238, -41.86999130, 25.54999924, 0.00000000
1, 6.3800, 319, 0.52771962, -0.83198857, 0.15373108, -30.27133179, -21.37570381, -8.56518841, 29.13565063, -66.98388672, -27.07316208, 104.82216644, 36.60953903, -46.02478790, -0.43574777, 0.76733732, -0.11776598, -0.45546520, 0.06679433, 0.05615967, 0.05753157, 101.82900238, -41.86999130, 25.54999924, 0.00000000
1, 6.4000, 320, 0.54464239, -0.83460176, 0.12614109, -19.45305443, -14.25851440, -7.60953999, 29.65777016, -67.66535187, -27.55836868, 104.28742218, 36.83504868, -46.28487015, -0.43735832, 0.76503152, -0.11612953, -0.45821220, 0.05334188, 0.05873543, 0.07496103, 101.82900238, -41.86999130, 25.54999924, 0.00000000
1, 6.4200, 321, 0.54935449, -0.82726961, 0.08038823, -12.88717937, -14.10124683, -6.98277903, 29.74478912, -67.55177307, -27.25511169, 103.85143280, 37.04038620, -46.59343719, -0.43817857, 0.76305526, -0.11530113, -0.46092498, 0.05156698, 0.05193094, 0.11388038, 101.82900238, -41.86999130, 25.54999924, 0.00000000
1, 6.4400, 322, 0.54418552, -0.83233541, 0.08928201, -6.43549156, -18.53351212, -7.29936028, 29.30969048, -67.26782990, -28.28618813, 103.50061798, 37.27457428, -46.96356964, -0.43804449, 0.76134735, -0.11504550, -0.46393105, 0.05977555, 0.05785445, 0.09888741, 101.82900238, -41.86999130, 25.54999924, 0.00000000
1, 6.4600, 323, 0.53278220, -0.84984720, 0.10407303, -1.12272251, -15.82728386, -5.91265869, 29.16465759, -67.52338409, -28.13456154, 103.27073669, 37.45786667, -47.30373764, -0.43742317, 0.76013422, -0.11534893, -0.46642441, 0.07423162, 0.07671194, 0.07976054, 101.82900238, -41.86999130, 25.54999924, 0.00000000
1, 6.4800, 324, 0.54457545, -0.84008175, 0.10230598, -1.26025033, -8.38523769, -5.63733244, 29.59975624, -67.55177307, -27.70999718, 103.14678955, 37.60621643, -47.47449112, -0.43692586, 0.75949663, -0.11514744, -0.46797621, 0.06461854, 0.06800724, 0.07875510, 101.82900238, -41.86999130, 25.54999924, 0.00000000
1, 6.5000, 325, 0.54729706, -0.83766955, 0.08871002, 2.11824894, -8.24546719, -5.43155766, 29.13565063, -67.52338409, -28.04358482, 103.09900665, 37.75898743, -47.58824921, -0.43613404, 0.75920790, -0.11485208, -0.46925414, 0.06401776, 0.06696069, 0.09101643, 101.82900238, -41.86999130, 25.54999924, 0.00000000
1, 6.5200, 326, 0.55410236, -0.84185511, 0.10323672, -2.35308385, -10.04361629, -4.41916466, 28.46850014, -67.23944092, -28.10423088, 102.90754700, 37.88955688, -47.81352234, -0.43592626, 0.75826061, -0.11482763, -0.47098184, 0.05915573, 0.07227527, 0.07469761, 101.82900238, -41.86999130, 25.54999924, 0.00000000
1, 6.5400, 327, 0.54684722, -0.82961297, 0.11147680, -5.22390461, -9.81762886, -3.28695893, 29.42571640, -66.52957153, -28.40748787, 102.71215057, 38.00768280, -47.96226120, -0.43610582, 0.75737578, -0.11434487, -0.47235462, 0.06806501, 0.06056352, 0.06300838, 101.82900238, -41.86999130, 25.54999924, 0.00000000
1, 6.5600, 328, 0.55549562, -0.82463759, 0.11036143, -2.77021813, -9.47267151, -2.80070353, 29.01962471, -66.92709351, -28.52879333, 102.52106476, 38.10588074, -48.18423080, -0.43603447, 0.75643408, -0.11447077, -0.47389644, 0.06090303, 0.05621769, 0.06163551, 101.82900238, -41.86999130, 25.54999924, 0.00000000
1, 6.5800, 329, 0.55592787, -0.83100730, 0.11557475, -2.13367987, -9.96077728, -3.57584310, 28.29446220, -68.00609589, -27.70999718, 102.33790588, 38.21645737, -48.40966034, -0.43583781, 0.75552136, -0.11457734, -0.47550493, 0.06197568, 0.06317949, 0.05364424, 101.82900238, -41.86999130, 25.54999924, 0.00000000
1, 6.6000, 330, 0.55730182, -0.82748973, 0.12500490, -3.79633641, -7.96530771, -1.84415209, 28.96161270, -68.03447723, -28.10423088, 102.21157837, 38.29900360, -48.50805283, -0.43590918, 0.75495017, -0.11423628, -0.47642773, 0.06192842, 0.06025241, 0.04203015, 101.82900238, -41.86999130, 25.54999924, 0.00000000
1, 6.6200, 331, 0.55330461, -0.81983787, 0.09710555, -4.47147036, -5.90528488, -2.72103143, 28.12042236, -66.01847076, -28.80172729, 102.04715729, 38.38063049, -48.63854599, -0.43609950, 0.75420278, -0.11395090, -0.47750455, 0.06696408, 0.05292931, 0.06756843, 101.82900238, -41.86999130, 25.54999924, 0.00000000
1, 6.6400, 332, 0.57873791, -0.83403021, 0.06493736, 0.35557690, -7.16710281, -2.98723507, 28.32346725, -66.35919952, -29.10497665, 101.96800995, 38.49236679, -48.74274826, -0.43570659, 0.75380975, -0.11367568, -0.47854823, 0.04279340, 0.06775534, 0.09791662, 101.82900238, -41.86999130, 25.54999924, 0.00000000
1, 6.6600, 333, 0.56449074, -0.82513738, 0.06697632, 4.92002058, -8.94049549, -0.56681412, 28.03340340, -66.38760376, -28.07390785, 101.93616486, 38.53946686, -48.96227646, -0.43479589, 0.75347519, -0.11472028, -0.47965303, 0.05826985, 0.05965849, 0.09492260, 101.82900238, -41.86999130, 25.54999924, 0.00000000
1, 6.6800, 334, 0.55517483, -0.82124740, 0.07826985, 8.20588493, -7.28939867, -0.30001873, 27.54029083, -65.81970978, -29.10497665, 101.98960114, 38.57557297, -49.14003372, -0.43354428, 0.75350302, -0.11590914, -0.48045576, 0.06812789, 0.05623810, 0.08376215, 101.82900238, -41.86999130, 25.54999924, 0.00000000
1, 6.7000, 335, 0.56459993, -0.82596135, 0.08935010, 7.18781376, -7.99113846, -2.06251717, 27.51128387, -65.70613098, -28.16488266, 102.04127502, 38.66636658, -49.26939392, -0.43226972, 0.75357777, -0.11646413, -0.48135182, 0.05950923, 0.06177347, 0.07345115, 101.82900238, -41.86999130, 25.54999924, 0.00000000
1, 6.7200, 336, 0.56421143, -0.82997513, 0.10238624, 4.10203218, -9.19134808, -3.95707822, 27.56929779, -65.56416321, -27.89195633, 101.99007416, 38.78484344, -49.47740936, -0.43121871, 0.75318730, -0.11694737, -0.48278645, 0.06132740, 0.06688851, 0.06009362, 101.82900238, -41.86999130, 25.54999924, 0.00000000
1, 6.7400, 337, 0.56511879, -0.83474481, 0.10368893, 2.29888058, -8.07358360, -5.78312397, 27.68532372, -65.96168518, -27.89195633, 101.96673584, 38.94076538, -49.57114792, -0.43030030, 0.75302297, -0.11658414, -0.48394871, 0.06228262, 0.07295078, 0.05767047, 101.82900238, -41.86999130, 25.54999924, 0.00000000
1, 6.7600, 338, 0.56711465, -0.83181947, 0.08282960, -0.70215684, -8.60587215, -4.91198492, 26.98916626, -65.36540222, -28.19521332, 101.82721710, 39.07270050, -49.76606750, -0.42981839, 0.75231731, -0.11652839, -0.48548526, 0.06228757, 0.07145821, 0.07749230, 101.82900238, -41.86999130, 25.54999924, 0.00000000
1, 6.7800, 339, 0.55659777, -0.82579428, 0.08729947, -2.19476485, -9.01619053, -4.79049110, 27.65631676, -65.36540222, -27.80097389, 101.65794373, 39.20278931, -49.96298599, -0.42952618, 0.75149959, -0.11636578, -0.48704693, 0.07460172, 0.06639737, 0.07050674, 101.82900238, -41.86999130, 25.54999924, 0.00000000
1, 6.8000, 340, 0.55828542, -0.82750618, 0.09308063, -2.22463512, -5.55334616, -4.56118298, 27.56929779, -65.79131317, -28.07390785, 101.58599091, 39.31690216, -49.99120331, -0.42937919, 0.75121671, -0.11559803, -0.48779511, 0.07458899, 0.06912529, 0.06289365, 101.82900238, -41.86999130, 25.54999924, 0.00000000
1, 6.8200, 341, 0.56679690, -0.83520329, 0.09641559, -6.29806185, -1.91178465, -3.53198671, 27.01817322, -64.62714386, -28.10423088, 101.43696594, 39.39099884, -50.01562119, -0.42992765, 0.75064337, -0.11470287, -0.48840556, 0.06737315, 0.07758091, 0.05797488, 101.82900238, -41.86999130, 25.54999924, 0.00000000
1, 6.8400, 342, 0.56927836, -0.83562779, 0.09905130, -10.80849934, 3.16629744, -1.93467629, 26.81512642, -64.48516083, -28.34684181, 101.31884766, 39.42153549, -49.85464859, -0.43125355, 0.75036353, -0.11297192, -0.48806998, 0.06554952, 0.07809585, 0.05306220, 101.82900238, -41.86999130, 25.54999924, 0.00000000
1, 6.8600, 343, 0.57841724, -0.83274817, 0.07493117, -12.30935097, 6.62712622, -0.42531532, 27.25022507, -63.49136353, -28.16488266, 101.17898560, 39.40187073, -49.68681335, -0.43296942, 0.74999791, -0.11138962, -0.48747623, 0.05650563, 0.07502040, 0.07580476, 101.82900238, -41.86999130, 25.54999924, 0.00000000
1, 6.8800, 344, 0.57320195, -0.83404791, 0.07174625, -14.45552444, 6.45585585, 0.60879630, 26.96015930, -63.71850967, -27.89195633, 100.98334503, 39.36586761, -49.52154160, -0.43510893, 0.74941164, -0.10968154, -0.48685980, 0.06130821, 0.07556976, 0.07693889, 101.82900238, -41.86999130, 25.54999924, 0.00000000
1, 6.9000, 345, 0.55954635, -0.84299463, 0.10527221, -27.67549706, 12.03171062, -3.10832858, 26.23499680, -62.58273315, -27.77065086, 100.65308380, 39.38572693, -49.15548706, -0.43873486, 0.74849904, -0.10577408, -0.48587331, 0.07476785, 0.08369601, 0.04002061, 101.82900238, -41.86999130, 25.54999924, 0.00000000
1, 6.9200, 346, 0.58973706, -0.84558314, 0.05999514, -36.07041931, 14.57413483, -4.25861931, 27.07618523, -63.06543732, -28.37716484, 100.16574860, 39.41511536, -48.77556610, -0.44339702, 0.74696970, -0.10106235, -0.48499668, 0.04503242, 0.08564907, 0.07988066, 101.82900238, -41.86999130, 25.54999924, 0.00000000
1, 6.9400, 347, 0.60585231, -0.83506042, 0.02893833, -38.35752106, 8.26027107, -0.78905624, 26.32201576, -62.24199677, -28.92302513, 99.54862976, 39.41039658, -48.54344559, -0.44841623, 0.74476832, -0.09696774, -0.48460332, 0.02903476, 0.07384738, 0.10322969, 101.82900238, -41.86999130, 25.54999924, 0.00000000
1, 6.9600, 348, 0.60073501, -0.83631450, 0.03438629, -31.92487144, 5.84779501, 3.04232454, 25.85791016, -61.61732101, -29.40823364, 99.00220490, 39.32713699, -48.40906143, -0.45288929, 0.74271971, -0.09426645, -0.48412052, 0.03366839, 0.07340210, 0.09008633, 101.82900238, -41.86999130, 25.54999924, 0.00000000
1, 6.9800, 349, 0.57874739, -0.82954514, 0.04343197, -26.09184265, 6.52150583, 6.36023808, 26.52506065, -61.19140244, -28.98367882, 98.58559418, 39.17949677, -48.26306152, -0.45683706, 0.74116135, -0.09241795, -0.48315507, 0.05406523, 0.06430066, 0.07466368, 101.82900238, -41.86999130, 25.54999924, 0.00000000
1, 7.0000, 350, 0.57785624, -0.81411690, 0.02627738, -10.94614887, 6.19919538, 7.40681076, 25.71287727, -59.60130692, -29.34758759, 98.47412109, 39.03839874, -48.10299683, -0.45883635, 0.74082053, -0.09173211, -0.48191223, 0.05291315, 0.04669856, 0.08860834, 101.82900238, -41.86999130, 25.54999924, 0.00000000
1, 7.0200, 351, 0.55560595, -0.81161261, 0.02214504, -5.45007992, -2.51658440, 4.89420652, 25.10374260, -58.60750198, -28.46813965, 98.30551910, 38.95487213, -48.19212341, -0.45990819, 0.74005812, -0.09208402, -0.48199478, 0.07354379, 0.04267351, 0.09144509, 101.82900238, -41.86999130, 25.54999924, 0.00000000
1, 7.0400, 352, 0.54155004, -0.81094170, 0.04053920, -8.84658146, -5.01508713, 1.10038161, 24.81367683, -58.23836899, -28.34684181, 98.08470917, 38.96159363, -48.25598526, -0.46103582, 0.73912096, -0.09152785, -0.48246121, 0.08704581, 0.04112050, 0.07010314, 101.82900238, -41.86999130, 25.54999924, 0.00000000
1, 7.0600, 353, 0.54383731, -0.82057285, 0.03197798, -8.79356480, -3.48161674, -0.53489554, 24.72665596, -58.20997620, -27.74032784, 97.87654114, 38.97454453, -48.33647537, -0.46198317, 0.73822117, -0.09109432, -0.48301455, 0.08513062, 0.05063580, 0.07570555, 101.82900238, -41.86999130, 25.54999924, 0.00000000
1, 7.0800, 354, 0.54657286, -0.82003945, 0.02157315, 2.01793885, 0.16211963, 2.75910854, 24.46559715, -57.30134964, -27.74032784, 97.91579437, 38.91981888, -48.34264374, -0.46193871, 0.73836291, -0.09161840, -0.48274109, 0.08203439, 0.04967505, 0.08515866, 101.82900238, -41.86999130, 25.54999924, 0.00000000
1, 7.1000, 355, 0.55188882, -0.82281703, 0.01020236, 2.58911633, -2.16808915, 2.22721767, 24.46559715, -57.98281860, -27.34609604, 97.92169952, 38.88747025, -48.33243942, -0.46208212, 0.73838806, -0.09176606, -0.48253736, 0.07608241, 0.05202171, 0.09715982, 101.82900238, -41.86999130, 25.54999924, 0.00000000
1, 7.1200, 356, 0.54741889, -0.82405901, 0.00981482, 1.06839299, -5.37528896, 1.25868368, 24.34956932, -57.55690002, -27.16413689, 97.85655212, 38.87662888, -48.47457504, -0.46194941, 0.73800874, -0.09247035, -0.48310989, 0.08029670, 0.05298168, 0.09701530, 101.82900238, -41.86999130, 25.54999924, 0.00000000
1, 7.1400, 357, 0.54807884, -0.83323705, 0.01331482, 2.53075457, -5.02514744, 1.43226039, 23.91447258, -56.56309509, -27.49772453, 97.83066559, 38.85754395, -48.52989960, -0.46196467, 0.73785537, -0.09282872, -0.48326087, 0.07947399, 0.06193774, 0.09286853, 101.82900238, -41.86999130, 25.54999924, 0.00000000
1, 7.1600, 358, 0.55113584, -0.83970350, 0.00607063, 0.27753827, -5.43684196, 2.11977315, 23.36334801, -56.08038712, -26.89121056, 97.74121857, 38.83071136, -48.67693710, -0.46203506, 0.73736888, -0.09355427, -0.48379579, 0.07606120, 0.06803663, 0.09954251, 101.82900238, -41.86999130, 25.54999924, 0.00000000
1, 7.1800, 359, 0.54499406, -0.83521605, 0.01251735, -0.21329722, -5.10577202, 2.20154881, 23.18930817, -55.05818558, -27.19446754, 97.65524292, 38.80036545, -48.81210327, -0.46214759, 0.73690397, -0.09423760, -0.48426396, 0.08183447, 0.06306887, 0.09176402, 101.82900238, -41.86999130, 25.54999924, 0.00000000
1, 7.2000, 360, 0.54984003, -0.83697402, 0.00818373, 1.87158418, -4.36819363, 2.19567370, 22.37712479, -54.34832001, -26.28469658, 97.62841797, 38.76520157, -48.85592270, -0.46228597, 0.73675066, -0.09461123, -0.48429212, 0.07654028, 0.06437660, 0.09545459, 101.82900238, -41.86999130, 25.54999924, 0.00000000
1, 7.2200, 361, 0.54554349, -0.83135027, 0.01658658, 2.20181870, -5.58740091, 2.60072064, 22.58016968, -55.62607574, -26.16339111, 97.57834625, 38.72849274, -49.00949860, -0.46211633, 0.73641163, -0.09560100, -0.48477516, 0.08032783, 0.05828520, 0.08663779, 101.82900238, -41.86999130, 25.54999924, 0.00000000
1, 7.2400, 362, 0.54185945, -0.83118641, 0.02685958, 3.36666179, -4.99288797, 2.95835447, 22.11606598, -54.68905640, -26.28469658, 97.60797882, 38.68393707, -49.06489563, -0.46188328, 0.73647255, -0.09634247, -0.48475778, 0.08348321, 0.05762833, 0.07587503, 101.82900238, -41.86999130, 25.54999924, 0.00000000
1, 7.2600, 363, 0.54664195, -0.83086818, 0.03120221, 2.98223686, -2.91864061, 3.13871288, 21.44891548, -54.97300339, -25.79948044, 97.61765289, 38.63074112, -49.14726639, -0.46170169, 0.73642725, -0.09722328, -0.48482376, 0.07800455, 0.05683783, 0.07220750, 101.82900238, -41.86999130, 25.54999924, 0.00000000
1, 7.2800, 364, 0.56409121, -0.83820146, 0.01185234, 4.33617544, -2.60987568, 2.38006139, 21.12984276, -53.66685104, -24.92004013, 97.65517426, 38.59128571, -49.22431564, -0.46130452, 0.73650163, -0.09810744, -0.48491091, 0.05991901, 0.06372231, 0.09203811, 101.82900238, -41.86999130, 25.54999924, 0.00000000
1, 7.3000, 365, 0.57531095, -0.84679228, 0.01177121, 1.84404933, -6.40869236, 0.59522402, 21.07182884, -52.84341049, -25.28395081, 97.60681152, 38.62332916, -49.31421280, -0.46109653, 0.73623914, -0.09829336, -0.48546934, 0.04860684, 0.07224585, 0.09217253, 101.82900238, -41.86999130, 25.54999924, 0.00000000
1, 7.3200, 366, 0.59118211, -0.85440791, 0.01387421, 1.46815956, -8.26530743, -0.38702539, 20.37567139, -52.81501770, -24.31352615, 97.50833130, 38.65171051, -49.52441406, -0.46071491, 0.73567039, -0.09905998, -0.48653674, 0.03322427, 0.08008779, 0.08881395, 101.82900238, -41.86999130, 25.54999924, 0.00000000
1, 7.3400, 367, 0.59955889, -0.86788011, 0.00476327, 3.82485390, -8.37962627, 1.03117621, 19.91156769, -52.53107452, -23.37343407, 97.47087860, 38.67974854, -49.69022751, -0.46012944, 0.73538464, -0.09980138, -0.48737067, 0.02507592, 0.09360147, 0.09684326, 101.82900238, -41.86999130, 25.54999924, 0.00000000
1, 7.3600, 368, 0.60181922, -0.86949342, -0.00743449, 4.49538136, -7.55370378, 3.42894053, 19.99858856, -51.79281235, -23.37343407, 97.43495941, 38.62782288, -49.89482880, -0.45971420, 0.73504442, -0.10126454, -0.48797348, 0.02286825, 0.09521396, 0.10871049, 101.82900238, -41.86999130, 25.54999924, 0.00000000
1, 7.3800, 369, 0.58972573, -0.87007874, 0.00441029, 5.18446779, -6.62799120, 5.93017054, 19.94057465, -51.62244797, -23.64636040, 97.42254639, 38.52332306, -50.07633972, -0.45947409, 0.73479807, -0.10298616, -0.48821026, 0.03389602, 0.09490984, 0.09662825, 101.82900238, -41.86999130, 25.54999924, 0.00000000
1, 7.4000, 370, 0.58836007, -0.86726522, 0.00664671, 4.30318499, -3.55609608, 8.83036995, 19.65050888, -51.22492218, -22.58496857, 97.45844269, 38.37698746, -50.14470673, -0.45958775, 0.73482955, -0.10443193, -0.48774853, 0.03357881, 0.09078819, 0.09471903, 101.82900238, -41.86999130, 25.54999924, 0.00000000
1, 7.4200, 371, 0.58037949, -0.85625434, -0.00948857, 7.32350349, -4.29754019, 11.57824039, 19.33143806, -50.54345703, -22.37268829, 97.51397705, 38.15856552, -50.29779816, -0.45952794, 0.73483241, -0.10692445, -0.48726028, 0.03898307, 0.07783924, 0.11175770, 101.82900238, -41.86999130, 25.54999924, 0.00000000
1, 7.4400, 372, 0.55456465, -0.83805180, -0.00615390, 11.10271645, -8.56048679, 10.31646347, 18.14216805, -49.37928009, -21.61454582, 97.59591675, 37.98753357, -50.52372360, -0.45878398, 0.73488253, -0.10971888, -0.48726454, 0.06198706, 0.05754892, 0.10949130, 101.82900238, -41.86999130, 25.54999924, 0.00000000
1, 7.4600, 373, 0.54799891, -0.85020339, 0.00584522, 17.39535332, -6.96423340, 10.77549171, 18.40322685, -49.12372971, -20.70477486, 97.82785797, 37.78841019, -50.72520447, -0.45730421, 0.73553538, -0.11315663, -0.48688415, 0.06619439, 0.06814963, 0.09978253, 101.82900238, -41.86999130, 25.54999924, 0.00000000
1, 7.4800, 374, 0.55446869, -0.85218185, 0.02635855, 22.82247543, -1.76833940, 12.90968800, 18.43223381, -49.74840546, -20.00728607, 98.23590088, 37.53496552, -50.81157684, -0.45541641, 0.73697203, -0.11691440, -0.48559156, 0.05658078, 0.06833678, 0.08410489, 101.82900238, -41.86999130, 25.54999924, 0.00000000
1, 7.5000, 375, 0.55672115, -0.84692454, 0.02653322, 27.60484505, 1.04938543, 15.26084328, 17.85210228, -48.32868195, -19.00653839, 98.79263306, 37.23596573, -50.81949615, -0.45309380, 0.73905098, -0.12104873, -0.48358759, 0.05056354, 0.06116253, 0.09084618, 101.82900238, -41.86999130, 25.54999924, 0.00000000
1, 7.5200, 376, 0.54363739, -0.83476549, 0.02697275, 39.71602249, 1.54768908, 18.77795601, 17.91011620, -47.78918457, -17.88449478, 99.57792664, 36.85782623, -50.85707092, -0.44949752, 0.74195349, -0.12677129, -0.48102617, 0.05888722, 0.04685598, 0.10011933, 101.82900238, -41.86999130, 25.54999924, 0.00000000
1, 7.5400, 377, 0.52477872, -0.82755721, 0.04418771, 49.07610703, 2.95063853, 20.24480057, 17.70706940, -47.42005920, -17.18699837, 100.57432556, 36.45439148, -50.85632706, -0.44477499, 0.74568695, -0.13323840, -0.47788474, 0.07220818, 0.03762433, 0.09580285, 101.82900238, -41.86999130, 25.54999924, 0.00000000
1, 7.5600, 378, 0.53824580, -0.82872427, 0.07102686, 64.32279968, 4.05296421, 21.32579613, 17.41700554, -47.22129822, -16.61081505, 101.86685944, 36.02032852, -50.87026978, -0.43814892, 0.75049090, -0.14115317, -0.47419927, 0.05291722, 0.03754889, 0.08563513, 101.82900238, -41.86999130, 25.54999924, 0.00000000
1, 7.5800, 379, 0.52164406, -0.82461250, 0.07408539, 67.30116272, -4.43159962, 20.38668251, 16.98190689, -47.53363419, -14.39704037, 103.05983734, 35.65590286, -51.11402893, -0.43087685, 0.75457811, -0.14971672, -0.47174361, 0.06362723, 0.03299255, 0.10134196, 101.82900238, -41.86999130, 25.54999924, 0.00000000
1, 7.6000, 380, 0.51110649, -0.80108279, 0.07691020, 60.88656998, -28.19248772, 13.35697556, 16.89488602, -47.39166260, -13.39629459, 103.80428314, 35.55523300, -51.89465332, -0.42318586, 0.75626725, -0.15849046, -0.47313246, 0.07068986, 0.01017510, 0.11274896, 101.82900238, -41.86999130, 25.54999924, 0.00000000
1, 7.6200, 381, 0.49390945, -0.80377746, 0.11414734, 43.56303406, -53.58822250, 2.16556859, 16.89488602, -46.90895462, -12.88076401, 103.88317108, 35.79071808, -53.21162796, -0.41616425, 0.75478017, -0.16620025, -0.47905290, 0.08881065, 0.01492261, 0.08115774, 101.82900238, -41.86999130, 25.54999924, 0.00000000
