SensorId, TimeStamp (s), FrameNumber, AccX (g), AccY (g), AccZ (g), GyroX (deg/s), GyroY (deg/s), GyroZ (deg/s), MagX (uT), MagY (uT), MagZ (uT), EulerX (deg), EulerY (deg), EulerZ (deg), QuatW, QuatX, QuatY, QuatZ, LinAccX (g), LinAccY (g), LinAccZ (g), Pressure (kPa), Altitude (m), Temperature (degC), HeaveMotion (m)
1, 0.0000, 0, 0.00381344, -0.04070285, 0.99923199, -0.02454205, 0.00041254, 0.00811574, -12.69179726, -2.89744139, 14.77622700, 0.68800551, 1.41043758, 83.29257202, 0.74724072, 0.00369276, -0.01318668, -0.66441244, 0.01968374, -0.00381403, 0.00039763, 101.81400299, -40.62634277, 26.25000000, 0.00000000
1, 0.0200, 1, 0.00443279, -0.04274720, 0.99980050, -0.08580308, 0.08945818, 0.02455888, -12.34371662, -3.69248891, 14.95818138, 0.67656636, 1.39850569, 83.27553558, 0.74733973, 0.00369622, -0.01304311, -0.66430390, 0.01893368, -0.00569521, 0.00106000, 101.81400299, -40.62634277, 26.25000000, 0.00000000
1, 0.0400, 2, 0.00458777, -0.04265897, 0.99898058, 0.06790213, -0.03763274, 0.00658539, -12.31471348, -3.57891035, 14.77622700, 0.67741394, 1.39874685, 83.27560425, 0.74733931, 0.00369210, -0.01304960, -0.66430420, 0.01869010, -0.00557641, 0.00023346, 101.81400299, -40.62634277, 26.25000000, 0.00000000
1, 0.0600, 3, 0.00509098, -0.04063462, 0.99853522, 0.05751896, -0.01788265, -0.00226958, -12.31471348, -3.52212167, 14.80655289, 0.68935442, 1.43241787, 83.27072906, 0.74736643, 0.00380889, -0.01333854, -0.66426736, 0.01819695, -0.00358519, -0.00031052, 101.81400299, -40.62634277, 26.25000000, 0.00000000
1, 0.0800, 4, 0.00440993, -0.04049967, 0.99946243, -0.06522445, 0.06986094, 0.00353366, -12.51775742, -3.06780863, 14.44264698, 0.68751943, 1.43095422, 83.27076721, 0.74736619, 0.00381237, -0.01331836, -0.66426796, 0.01944774, -0.00359752, 0.00062608, 101.81400299, -40.62634277, 26.25000000, 0.00000000
1, 0.1000, 5, 0.00451794, -0.04202713, 0.99944299, 0.04903768, 0.00951301, 0.03838106, -12.34371662, -3.80606627, 14.16971302, 0.68840557, 1.43054175, 83.26982117, 0.74737173, 0.00380409, -0.01332084, -0.66426176, 0.01932415, -0.00510759, 0.00068060, 101.81400299, -40.62634277, 26.25000000, 0.00000000
1, 0.1200, 6, 0.00409426, -0.04190428, 0.99862283, 0.05284438, -0.06413627, 0.01278348, -12.80782318, -4.40235090, 14.62459850, 0.69595659, 1.45696032, 83.27232361, 0.74735624, 0.00390831, -0.01353681, -0.66427422, 0.02000252, -0.00511389, -0.00013665, 101.81400299, -40.62634277, 26.25000000, 0.00000000
1, 0.1400, 7, 0.00390378, -0.04228079, 0.99914187, -0.00993478, 0.08421226, -0.01913740, -12.63378239, -3.80606627, 15.07948303, 0.69619423, 1.45579028, 83.27230072, 0.74735641, 0.00389997, -0.01353055, -0.66427416, 0.02037978, -0.00552084, 0.00040596, 101.81400299, -40.62634277, 26.25000000, 0.00000000
1, 0.1600, 8, 0.00446647, -0.04193218, 0.99984616, -0.05924279, 0.00386618, -0.08161154, -12.92384911, -3.35175443, 14.83687973, 0.67564481, 1.40670311, 83.25895691, 0.74743533, 0.00374787, -0.01309177, -0.66419494, 0.01980983, -0.00514023, 0.00109135, 101.81400299, -40.62634277, 26.25000000, 0.00000000
1, 0.1800, 9, 0.00378210, -0.04239095, 0.99940258, 0.00118528, 0.00475897, 0.03652534, -12.63378239, -3.15299273, 15.20078564, 0.67571396, 1.40674222, 83.25859070, 0.74743742, 0.00374760, -0.01309243, -0.66419262, 0.01963144, -0.00525906, 0.00064568, 101.81400299, -40.62634277, 26.25000000, 0.00000000
1, 0.2000, 10, 0.00446055, -0.04050304, 0.99885088, 0.00224487, -0.05493366, -0.04554789, -12.45974255, -3.46533179, 14.35167217, 0.67583942, 1.40804887, 83.25942993, 0.74743259, 0.00375445, -0.01310166, -0.66419792, 0.01896765, -0.00340861, 0.00000208, 101.81400299, -40.62634277, 26.25000000, 0.00000000
1, 0.2200, 11, 0.00402037, -0.04158684, 0.99764818, 0.00374632, 0.02361370, 0.01141168, -12.25669861, -3.09620309, 14.71557713, 0.68234485, 1.43765497, 83.25357819, 0.74746531, 0.00388297, -0.01333264, -0.66415572, 0.01972214, -0.00461144, -0.00113712, 101.81400299, -40.62634277, 26.25000000, 0.00000000
1, 0.2400, 12, 0.00465756, -0.04161133, 0.99948341, -0.03704404, 0.05286565, -0.03622354, -12.57577133, -3.60730481, 15.01883030, 0.68230051, 1.43687499, 83.25399780, 0.74746293, 0.00387879, -0.01332729, -0.66415852, 0.01928779, -0.00458467, 0.00070185, 101.81400299, -40.62634277, 26.25000000, 0.00000000
1, 0.2600, 13, 0.00451907, -0.04162373, 1.00002491, 0.02494317, -0.04573605, 0.02774065, -12.43073845, -3.57891035, 15.01883030, 0.69483811, 1.47570467, 83.24919128, 0.74748939, 0.00402152, -0.01365337, -0.66412133, 0.01942954, -0.00458202, 0.00124357, 101.81400299, -40.62634277, 26.25000000, 0.00000000
1, 0.2800, 14, 0.00393763, -0.04100431, 0.99950784, 0.01470893, -0.02598107, -0.04059784, -12.72080517, -3.74927759, 14.29101849, 0.69517320, 1.47597873, 83.24994659, 0.74748498, 0.00402102, -0.01365707, -0.66412622, 0.02069071, -0.00420918, 0.00071759, 101.81400299, -40.62634277, 26.25000000, 0.00000000
1, 0.3000, 15, 0.00430265, -0.04189027, 0.99801165, -0.02637930, 0.00326110, 0.03073404, -12.69179726, -3.01101995, 13.98776150, 0.69422954, 1.47553444, 83.24964142, 0.74748671, 0.00402456, -0.01364871, -0.66412437, 0.02032548, -0.00516308, -0.00073409, 101.81400299, -40.62634277, 26.25000000, 0.00000000
1, 0.3200, 16, 0.00458833, -0.04201176, 0.99953061, 0.01169780, 0.01883316, 0.02153317, -13.03987408, -3.23817587, 14.38199425, 0.67660260, 1.37577820, 83.22781372, 0.74761730, 0.00355884, -0.01289660, -0.66399515, 0.01903324, -0.00502372, 0.00076139, 101.81400299, -40.62634277, 26.25000000, 0.00000000
1, 0.3400, 17, 0.00514959, -0.04137903, 0.99995857, 0.06255949, -0.01026997, 0.08885788, -12.72080517, -3.03941441, 13.86645603, 0.67771399, 1.37587380, 83.22613525, 0.74762702, 0.00355195, -0.01290372, -0.66398400, 0.01772529, -0.00424721, 0.00113737, 101.81400299, -40.62634277, 26.25000000, 0.00000000
1, 0.3600, 18, 0.00453574, -0.04192618, 0.99958402, 0.08349960, -0.04976448, 0.03717028, -13.21391487, -3.32335997, 14.35167217, 0.67602998, 1.35441720, 83.21041870, 0.74771899, 0.00343684, -0.01275446, -0.66388398, 0.01835480, -0.00484241, 0.00079142, 101.81400299, -40.62634277, 26.25000000, 0.00000000
1, 0.3800, 19, 0.00369089, -0.04154381, 0.99880177, 0.03386038, -0.10025773, -0.06357867, -12.57577133, -3.20978141, 13.92710876, 0.67669702, 1.35601223, 83.21138000, 0.74771333, 0.00344184, -0.01276870, -0.66389000, 0.01883719, -0.00446334, -0.00001682, 101.81400299, -40.62634277, 26.25000000, 0.00000000
1, 0.4000, 20, 0.00416679, -0.04204094, 0.99928516, 0.03338023, -0.07040980, -0.04236991, -12.66279030, -3.77767205, 13.44190121, 0.67734295, 1.35706329, 83.21179199, 0.74771094, 0.00344376, -0.01277929, -0.66389251, 0.01838198, -0.00494463, 0.00049038, 101.81400299, -40.62634277, 26.25000000, 0.00000000
1, 0.4200, 21, 0.00570904, -0.04102501, 0.99966687, -0.05160290, 0.01198374, 0.01081882, -12.98186302, -3.18138719, 14.07873726, 0.66536242, 1.33832264, 83.21326447, 0.74770290, 0.00341351, -0.01258757, -0.66390544, 0.01666150, -0.00379913, 0.00081460, 101.81400299, -40.62634277, 26.25000000, 0.00000000
1, 0.4400, 22, 0.00439593, -0.04174086, 0.99983078, -0.06401051, 0.02408426, 0.00140834, -12.83683014, -4.23198462, 14.59427547, 0.66408437, 1.33784270, 83.21330261, 0.74770260, 0.00341907, -0.01257703, -0.66390586, 0.01782778, -0.00440941, 0.00101048, 101.81400299, -40.62634277, 26.25000000, 0.00000000
1, 0.4600, 23, 0.00346334, -0.04218049, 0.99854881, -0.05340936, -0.00561325, -0.01993881, -12.60477543, -3.94803905, 14.07873726, 0.65425372, 1.27682936, 83.21784210, 0.74767852, 0.00313015, -0.01212189, -0.66394287, 0.01875159, -0.00487737, -0.00024829, 101.81400299, -40.62634277, 26.25000000, 0.00000000
1, 0.4800, 24, 0.00293613, -0.04186373, 0.99835998, 0.01753143, -0.01451176, -0.00153990, -12.98186302, -3.80606627, 14.26068783, 0.65476644, 1.27737713, 83.21811676, 0.74767691, 0.00313000, -0.01212842, -0.66394454, 0.01821788, -0.00441342, -0.00047764, 101.81400299, -40.62634277, 26.25000000, 0.00000000
1, 0.5000, 25, 0.00482939, -0.04232373, 0.99798912, 0.02750891, -0.00441148, -0.00121798, -13.03987408, -3.52212167, 14.56394482, 0.65527171, 1.27740145, 83.21837616, 0.74767548, 0.00312687, -0.01213150, -0.66394621, 0.01633748, -0.00490437, -0.00082726, 101.81400299, -40.62634277, 26.25000000, 0.00000000
1, 0.5200, 26, 0.00502516, -0.04239535, 0.99884456, 0.02036360, 0.03567903, 0.00189280, -12.43073845, -4.54432392, 14.35167217, 0.66483033, 1.31507766, 83.22750854, 0.74762130, 0.00328383, -0.01243242, -0.66400087, 0.01651327, -0.00503147, 0.00004004, 101.81400299, -40.62634277, 26.25000000, 0.00000000
1, 0.5400, 27, 0.00476081, -0.04089525, 0.99930042, -0.04987483, 0.09450343, -0.01375214, -12.48874950, -3.43693757, 14.74590015, 0.66364568, 1.31338334, 83.22803497, 0.74761826, 0.00328179, -0.01241449, -0.66400462, 0.01704235, -0.00357414, 0.00042899, 101.81400299, -40.62634277, 26.25000000, 0.00000000
1, 0.5600, 28, 0.00476298, -0.04096171, 0.99992877, -0.03944745, 0.06480021, 0.03429818, -12.80782318, -3.03941441, 13.92710876, 0.65424562, 1.30160546, 83.20831299, 0.74773276, 0.00327275, -0.01228375, -0.66387808, 0.01701521, -0.00359031, 0.00105893, 101.81400299, -40.62634277, 26.25000000, 0.00000000
1, 0.5800, 29, 0.00365742, -0.04210326, 0.99896926, 0.01247384, -0.02399554, 0.01954967, -12.66279030, -3.43693757, 14.38199425, 0.65501463, 1.30244637, 83.20751953, 0.74773735, 0.00327252, -0.01229372, -0.66387278, 0.01792645, -0.00461685, 0.00015139, 101.81400299, -40.62634277, 26.25000000, 0.00000000
1, 0.6000, 30, 0.00434388, -0.04207026, 0.99980909, 0.04327274, -0.04343909, -0.04126964, -12.95285606, -3.06780863, 14.35167217, 0.65546829, 1.30318260, 83.20845032, 0.74773192, 0.00327392, -0.01230112, -0.66387874, 0.01726072, -0.00456617, 0.00098872, 101.81400299, -40.62634277, 26.25000000, 0.00000000
1, 0.6200, 31, 0.00462213, -0.04061497, 0.99995047, 0.00098979, 0.07224416, 0.01330386, -12.98186302, -3.40854311, 14.68525124, 0.64711976, 1.29314184, 83.19911957, 0.74778616, 0.00326923, -0.01218751, -0.66381979, 0.01689195, -0.00302516, 0.00105535, 101.81400299, -40.62634277, 26.25000000, 0.00000000
1, 0.6400, 32, 0.00481541, -0.04145748, 0.99959034, -0.11939197, 0.00841369, -0.05799996, -13.15590000, -3.29496479, 14.95818138, 0.64455891, 1.29283130, 83.20054626, 0.74777782, 0.00328429, -0.01217061, -0.66382939, 0.01661921, -0.00380115, 0.00073389, 101.81400299, -40.62634277, 26.25000000, 0.00000000
1, 0.6600, 33, 0.00456723, -0.04179846, 0.99855489, 0.03179380, 0.04051312, 0.02061676, -12.60477543, -3.46533179, 14.62459850, 0.65263528, 1.30698681, 83.19299316, 0.74782127, 0.00331279, -0.01230997, -0.66377783, 0.01685344, -0.00417545, -0.00028399, 101.81400299, -40.62634277, 26.25000000, 0.00000000
1, 0.6800, 34, 0.00419995, -0.04106811, 0.99926275, 0.03294180, -0.03908573, 0.01693433, -12.69179726, -3.77767205, 14.62459850, 0.65324807, 1.30779850, 83.19310760, 0.74782056, 0.00331351, -0.01231882, -0.66377836, 0.01748239, -0.00355318, 0.00039537, 101.81400299, -40.62634277, 26.25000000, 0.00000000
1, 0.7000, 35, 0.00477733, -0.04111091, 0.99886078, -0.00844737, 0.02996482, -0.01894575, -12.86583805, -2.84065270, 14.80655289, 0.65313262, 1.30705738, 83.19332886, 0.74781924, 0.00330999, -0.01231331, -0.66377991, 0.01691202, -0.00362183, -0.00000442, 101.81400299, -40.62634277, 26.25000000, 0.00000000
1, 0.7200, 36, 0.00395632, -0.04209185, 0.99923187, -0.15131775, 0.01252799, -0.09119775, -12.69179726, -3.38014865, 14.29101849, 0.65187126, 1.32035100, 83.16873932, 0.74796110, 0.00339258, -0.01239347, -0.66361821, 0.01785660, -0.00456361, 0.00041769, 101.81400299, -40.62634277, 26.25000000, 0.00000000
1, 0.7400, 37, 0.00491899, -0.04208013, 0.99872619, 0.03219805, -0.01180707, 0.03175522, -12.95285606, -2.67028546, 14.16971302, 0.65266848, 1.32049596, 83.16771698, 0.74796706, 0.00338811, -0.01239906, -0.66361147, 0.01698979, -0.00457537, -0.00008685, 101.81400299, -40.62634277, 26.25000000, 0.00000000
1, 0.7600, 38, 0.00427152, -0.04166066, 0.99936002, 0.02277518, -0.05175286, -0.01951727, -12.60477543, -3.23817587, 14.86720562, 0.66185051, 1.30400848, 83.15335083, 0.74805123, 0.00323113, -0.01234504, -0.66351837, 0.01764888, -0.00413560, 0.00052678, 101.81400299, -40.62634277, 26.25000000, 0.00000000
1, 0.7800, 39, 0.00446594, -0.04201417, 0.99963516, 0.02258204, -0.04180463, 0.00077089, -12.60477543, -4.17519522, 15.32208729, 0.66215903, 1.30507815, 83.15354156, 0.74805009, 0.00323533, -0.01235380, -0.66351944, 0.01716939, -0.00463372, 0.00081414, 101.81400299, -40.62634277, 26.25000000, 0.00000000
1, 0.8000, 40, 0.00450077, -0.04209816, 0.99951190, -0.00854809, 0.00749175, 0.02331537, -13.38795471, -3.03941441, 15.10980988, 0.66154897, 1.30508864, 83.15300751, 0.74805313, 0.00323932, -0.01235035, -0.66351599, 0.01714250, -0.00473019, 0.00069527, 101.81400299, -40.62634277, 26.25000000, 0.00000000
1, 0.8200, 41, 0.00424882, -0.04162472, 0.99778777, -0.04956685, 0.05602314, -0.04325597, -13.03987408, -3.52212167, 14.92785549, 0.65295881, 1.30241442, 83.13063049, 0.74818254, 0.00327751, -0.01228380, -0.66337115, 0.01736942, -0.00424348, -0.00105147, 101.81400299, -40.62634277, 26.25000000, 0.00000000
1, 0.8400, 42, 0.00377713, -0.04156813, 0.99834722, 0.04278088, -0.04368274, 0.03013475, -12.77881527, -2.41473508, 14.86720562, 0.65377110, 1.30296469, 83.12995911, 0.74818641, 0.00327532, -0.01229211, -0.66336662, 0.01783123, -0.00410354, -0.00049586, 101.81400299, -40.62634277, 26.25000000, 0.00000000
1, 0.8600, 43, 0.00455591, -0.04132766, 1.00074518, 0.13453765, -0.09207981, 0.04641569, -12.57577133, -3.46533179, 14.62459850, 0.66091126, 1.34018528, 83.12334442, 0.74822336, 0.00344347, -0.01257663, -0.66331875, 0.01706552, -0.00377439, 0.00188731, 101.81400299, -40.62634277, 26.25000000, 0.00000000
1, 0.8800, 44, 0.00495868, -0.04158118, 1.00044513, 0.04191989, 0.01601639, 0.03289660, -12.86583805, -3.32335997, 14.83687973, 0.66170770, 1.33968973, 83.12264252, 0.74822748, 0.00343533, -0.01257803, -0.66331422, 0.01729721, -0.00415018, 0.00161551, 101.81400299, -40.62634277, 26.25000000, 0.00000000
1, 0.9000, 45, 0.00381398, -0.04173473, 0.99879950, -0.13025020, 0.03336456, -0.03322795, -12.74980831, -3.26657033, 14.80655289, 0.65951663, 1.33893466, 83.12313080, 0.74822468, 0.00344532, -0.01256040, -0.66331768, 0.01842779, -0.00436854, -0.00001996, 101.81400299, -40.62634277, 26.25000000, 0.00000000
1, 0.9200, 46, 0.00374450, -0.04187640, 0.99891990, -0.02842281, 0.02531343, -0.00555212, -12.66279030, -3.55051589, 14.53362274, 0.66551322, 1.37083781, 83.11896515, 0.74824750, 0.00359040, -0.01280353, -0.66328639, 0.01881182, -0.00455354, 0.00011536, 101.81400299, -40.62634277, 26.25000000, 0.00000000
1, 0.9400, 47, 0.00422029, -0.04191006, 0.99963623, -0.05503965, -0.00260513, -0.01776347, -12.86583805, -2.98262548, 14.23036575, 0.66464680, 1.37104213, 83.11914825, 0.74824643, 0.00359726, -0.01279985, -0.66328770, 0.01857285, -0.00458257, 0.00083804, 101.81400299, -40.62634277, 26.25000000, 0.00000000
1, 0.9600, 48, 0.00469376, -0.04155068, 0.99986869, 0.01520301, 0.02829172, 0.05204632, -12.25669861, -3.26657033, 14.29101849, 0.66376263, 1.36798263, 83.11006927, 0.74829906, 0.00358431, -0.01277504, -0.66322881, 0.01809350, -0.00420336, 0.00105168, 101.81400299, -40.62634277, 26.25000000, 0.00000000
1, 0.9800, 49, 0.00514586, -0.04073618, 0.99918073, 0.06712974, -0.05054931, -0.02172548, -12.60477543, -3.89125037, 14.16971302, 0.66539383, 1.36902976, 83.11048126, 0.74829674, 0.00357976, -0.01279130, -0.66323125, 0.01760579, -0.00342527, 0.00032329, 101.81400299, -40.62634277, 26.25000000, 0.00000000
1, 1.0000, 50, 0.00425442, -0.04198926, 0.99930340, 0.04724923, -0.07074743, -0.05211113, -12.05365086, -5.36776590, 14.86720562, 0.66614139, 1.36992157, 83.11104584, 0.74829340, 0.00358011, -0.01280143, -0.66323477, 0.01852161, -0.00469642, 0.00050906, 101.81400299, -40.62634277, 26.25000000, 0.00000000
1, 1.0200, 51, 0.00336026, -0.04234951, 0.99910563, 0.01595078, -0.01150201, -0.01919238, -12.31471348, -3.20978141, 14.26068783, 0.65918154, 1.31979394, 83.15416718, 0.74804574, 0.00334006, -0.01243260, -0.66352236, 0.01891673, -0.00499747, 0.00031765, 101.81400299, -40.62634277, 26.25000000, 0.00000000
1, 1.0400, 52, 0.00474634, -0.04129349, 1.00001180, -0.03016323, 0.02800803, 0.01086152, -12.19868374, -3.55051589, 15.41306686, 0.65872651, 1.31941974, 83.15387726, 0.74804741, 0.00334083, -0.01242753, -0.66352057, 0.01715321, -0.00384327, 0.00116007, 101.81400299, -40.62634277, 26.25000000, 0.00000000
1, 1.0600, 53, 0.00448024, -0.04142619, 0.99897879, 0.00043709, 0.00855797, 0.02935364, -12.69179726, -3.18138719, 14.47297001, 0.66501331, 1.33113706, 83.14646912, 0.74808997, 0.00336684, -0.01254063, -0.66347027, 0.01741197, -0.00402399, 0.00013494, 101.81400299, -40.62634277, 26.25000000, 0.00000000
1, 1.0800, 54, 0.00507960, -0.04283647, 0.99915367, -0.05091021, 0.05755430, 0.04226097, -12.72080517, -3.35175443, 14.44264698, 0.66418570, 1.33005774, 83.14582062, 0.74809378, 0.00336592, -0.01252881, -0.66346622, 0.01700960, -0.00551899, 0.00038343, 101.81400299, -40.62634277, 26.25000000, 0.00000000
1, 1.1000, 55, 0.00405898, -0.04154296, 0.99876720, 0.09205036, -0.02988926, 0.04609494, -12.51775742, -3.18138719, 15.14013672, 0.66551393, 1.33069730, 83.14539337, 0.74809629, 0.00336090, -0.01254069, -0.66346318, 0.01802390, -0.00426025, -0.00006456, 101.81400299, -40.62634277, 26.25000000, 0.00000000
1, 1.1200, 56, 0.00428848, -0.04150244, 0.99927467, 0.08186035, -0.02008739, 0.01695180, -12.80782318, -3.49372721, 15.26143837, 0.67469120, 1.36057115, 83.13190460, 0.74817336, 0.00347248, -0.01278924, -0.66337103, 0.01810012, -0.00429915, 0.00044846, 101.81400299, -40.62634277, 26.25000000, 0.00000000
1, 1.1400, 57, 0.00364434, -0.04273394, 0.99997467, 0.08130899, -0.07257342, -0.06298579, -12.89484119, -4.48753500, 14.98850822, 0.67635173, 1.36147928, 83.13267517, 0.74816889, 0.00346698, -0.01280475, -0.66337574, 0.01898116, -0.00557430, 0.00121509, 101.81400299, -40.62634277, 26.25000000, 0.00000000
1, 1.1600, 58, 0.00481637, -0.04225234, 0.99942285, 0.02964989, -0.00367819, -0.03924392, -11.82159996, -3.69248891, 14.86720562, 0.64369214, 1.26434422, 83.13700104, 0.74814695, 0.00311826, -0.01198144, -0.66341764, 0.01781959, -0.00514247, 0.00063961, 101.81400299, -40.62634277, 26.25000000, 0.00000000
1, 1.1800, 59, 0.00540921, -0.04061863, 0.99935704, -0.04216280, 0.04500997, 0.06316552, -12.43073845, -3.29496479, 14.77622700, 0.64297408, 1.26346445, 83.13563538, 0.74815488, 0.00311771, -0.01197158, -0.66340888, 0.01551817, -0.00293627, 0.00044752, 101.81400299, -40.62634277, 26.25000000, 0.00000000
1, 1.2000, 60, 0.00437457, -0.04108025, 0.99903554, -0.06208751, 0.03476495, -0.00641556, -12.66279030, -3.52212167, 15.20078564, 0.64193231, 1.26280975, 83.13548279, 0.74815577, 0.00312070, -0.01196128, -0.66340810, 0.01653505, -0.00339202, 0.00014950, 101.81400299, -40.62634277, 26.25000000, 0.00000000
1, 1.2200, 61, 0.00432393, -0.04232762, 0.99891466, 0.07926428, 0.04681425, 0.07141894, -12.74980831, -3.43693757, 15.38274002, 0.63887185, 1.28110707, 83.12894440, 0.74819285, 0.00324594, -0.01206319, -0.66336381, 0.01676531, -0.00460360, 0.00009326, 101.81400299, -40.62634277, 26.25000000, 0.00000000
1, 1.2400, 62, 0.00474408, -0.04148342, 0.99920553, 0.07631065, -0.06643065, 0.00304656, -12.57577133, -3.09620309, 15.41306686, 0.64025396, 1.28277016, 83.12908936, 0.74819183, 0.00324656, -0.01208205, -0.66336447, 0.01649194, -0.00373715, 0.00034522, 101.81400299, -40.62634277, 26.25000000, 0.00000000
1, 1.2600, 63, 0.00453185, -0.04057965, 0.99916440, 0.01396835, -0.00826683, -0.00391288, -12.86583805, -3.72088313, 15.07948303, 0.63634920, 1.27127659, 83.12618256, 0.74820912, 0.00320521, -0.01198449, -0.66334707, 0.01672666, -0.00284410, 0.00026077, 101.81400299, -40.62634277, 26.25000000, 0.00000000
1, 1.2800, 64, 0.00437588, -0.04175760, 0.99904448, -0.01672583, 0.02113472, -0.04177254, -12.80782318, -4.09001207, 15.35241413, 0.63628066, 1.27106655, 83.12666321, 0.74820638, 0.00320449, -0.01198271, -0.66335022, 0.01667501, -0.00395582, 0.00019321, 101.81400299, -40.62634277, 26.25000000, 0.00000000
1, 1.3000, 65, 0.00518354, -0.04181675, 0.99935895, -0.02635273, -0.02877230, 0.04528965, -12.60477543, -3.57891035, 14.89752865, 0.63548231, 1.27134418, 83.12592316, 0.74821055, 0.00321123, -0.01197992, -0.66334540, 0.01587188, -0.00399630, 0.00050948, 101.81400299, -40.62634277, 26.25000000, 0.00000000
1, 1.3200, 66, 0.00458568, -0.04072529, 0.99945980, 0.08471054, -0.01717185, 0.09379749, -12.74980831, -4.06161785, 15.04915714, 0.64204961, 1.24242306, 83.13050079, 0.74818540, 0.00300138, -0.01182900, -0.66337752, 0.01618333, -0.00295809, 0.00055177, 101.81400299, -40.62634277, 26.25000000, 0.00000000
1, 1.3400, 67, 0.00448139, -0.04097151, 0.99959618, 0.03627767, -0.00482713, 0.03658646, -12.57577133, -3.72088313, 15.01883030, 0.64232147, 1.24210453, 83.12996674, 0.74818850, 0.00299771, -0.01182851, -0.66337401, 0.01607564, -0.00325397, 0.00069628, 101.81400299, -40.62634277, 26.25000000, 0.00000000
1, 1.3600, 68, 0.00399273, -0.04297509, 0.99913305, -0.03751766, -0.00467579, -0.05513236, -12.57577133, -3.35175443, 15.41306686, 0.64851969, 1.22908783, 83.11945343, 0.74825001, 0.00288079, -0.01177968, -0.66330606, 0.01655697, -0.00527048, 0.00033205, 101.81400299, -40.62634277, 26.25000000, 0.00000000
1, 1.3800, 69, 0.00379614, -0.04104722, 0.99910527, -0.00773413, 0.02562017, 0.00531701, -12.31471348, -3.12459826, 14.86720562, 0.64838850, 1.22859430, 83.11933136, 0.74825078, 0.00287878, -0.01177570, -0.66330534, 0.01651436, -0.00345580, 0.00020620, 101.81400299, -40.62634277, 26.25000000, 0.00000000
1, 1.4000, 70, 0.00441172, -0.04159161, 0.99937862, 0.04277153, 0.02636904, 0.04428087, -12.40173149, -3.77767205, 14.89752865, 0.64876676, 1.22788644, 83.11831665, 0.74825668, 0.00287211, -0.01177329, -0.66329873, 0.01589630, -0.00399796, 0.00050512, 101.81400299, -40.62634277, 26.25000000, 0.00000000
1, 1.4200, 71, 0.00509530, -0.04181276, 0.99918419, 0.04365736, -0.03332927, 0.03160508, -12.54676437, -2.78386402, 14.98850822, 0.64672583, 1.22632694, 83.10418701, 0.74833846, 0.00287496, -0.01175165, -0.66320676, 0.01519015, -0.00421426, 0.00032037, 101.81400299, -40.62634277, 26.25000000, 0.00000000
1, 1.4400, 72, 0.00434289, -0.04153217, 0.99981600, -0.00848056, -0.04374110, -0.05827742, -12.72080517, -4.20358944, 14.59427547, 0.64607078, 1.22710788, 83.10543823, 0.74833113, 0.00288388, -0.01175292, -0.66321498, 0.01593768, -0.00387578, 0.00093826, 101.81400299, -40.62634277, 26.25000000, 0.00000000
1, 1.4600, 73, 0.00439208, -0.04155988, 0.99874979, 0.01947239, 0.01661737, -0.00702760, -13.15590000, -3.18138719, 14.62459850, 0.65432811, 1.25558579, 83.08970642, 0.74842131, 0.00299316, -0.01198708, -0.66310853, 0.01589000, -0.00394989, -0.00012544, 101.81400299, -40.62634277, 26.25000000, 0.00000000
1, 1.4800, 74, 0.00414528, -0.04132787, 0.99847287, -0.10241002, 0.04466183, -0.00398621, -12.57577133, -3.20978141, 14.50329971, 0.65217710, 1.25476348, 83.08957672, 0.74842203, 0.00300243, -0.01196926, -0.66310799, 0.01663578, -0.00385366, -0.00040084, 101.81400299, -40.62634277, 26.25000000, 0.00000000
1, 1.5000, 75, 0.00406176, -0.04231628, 0.99917668, -0.02086264, 0.01602055, -0.06595766, -12.98186302, -3.46533179, 14.71557713, 0.65130335, 1.25432348, 83.09084320, 0.74841470, 0.00300572, -0.01196130, -0.66311640, 0.01670533, -0.00478345, 0.00034985, 101.81400299, -40.62634277, 26.25000000, 0.00000000
1, 1.5200, 76, 0.00449752, -0.04113311, 0.99906999, 0.04995404, 0.00711797, 0.00201091, -12.98186302, -4.17519522, 14.32134151, 0.66344953, 1.26047659, 83.08273315, 0.74846178, 0.00296115, -0.01207198, -0.66306156, 0.01632447, -0.00371703, 0.00018744, 101.81400299, -40.62634277, 26.25000000, 0.00000000
1, 1.5400, 77, 0.00484920, -0.04060895, 0.99968868, 0.09319162, -0.08133996, -0.02088457, -12.48874950, -3.03941441, 14.23036575, 0.66527092, 1.26169658, 83.08315277, 0.74845928, 0.00295636, -0.01209048, -0.66306394, 0.01603540, -0.00327286, 0.00078202, 101.81400299, -40.62634277, 26.25000000, 0.00000000
1, 1.5600, 78, 0.00469261, -0.04154269, 0.99951929, 0.00353610, -0.04224040, -0.06519611, -13.21391487, -3.89125037, 14.59427547, 0.66575080, 1.29137027, 83.08501434, 0.74844742, 0.00312515, -0.01228700, -0.66307300, 0.01621243, -0.00423006, 0.00065925, 101.81400299, -40.62634277, 26.25000000, 0.00000000
1, 1.5800, 79, 0.00427247, -0.04230130, 0.99928194, -0.00773835, 0.02725328, -0.00235201, -12.72080517, -3.49372721, 14.50329971, 0.66510069, 1.29104364, 83.08532715, 0.74844557, 0.00312754, -0.01228109, -0.66307515, 0.01713399, -0.00500795, 0.00047108, 101.81400299, -40.62634277, 26.25000000, 0.00000000
1, 1.6000, 80, 0.00469063, -0.04151175, 0.99892551, -0.03764599, -0.00304675, -0.01323176, -13.24292183, -4.37395668, 15.01883030, 0.66462970, 1.29105663, 83.08549500, 0.74844456, 0.00313071, -0.01227845, -0.66307634, 0.01671373, -0.00421307, 0.00007567, 101.81400299, -40.62634277, 26.25000000, 0.00000000
1, 1.6200, 81, 0.00474326, -0.04137488, 0.99901468, 0.02326765, -0.02204716, 0.02467312, -12.45974255, -3.32335997, 14.23036575, 0.65418595, 1.25279856, 83.06724548, 0.74855137, 0.00297561, -0.01196864, -0.66296208, 0.01626958, -0.00396471, 0.00014808, 101.81400299, -40.62634277, 26.25000000, 0.00000000
1, 1.6400, 82, 0.00498982, -0.04138243, 0.99934679, -0.00558724, -0.05217696, 0.03454281, -12.86583805, -2.84065270, 14.68525124, 0.65427411, 1.25381815, 83.06669617, 0.74855453, 0.00298087, -0.01197582, -0.66295844, 0.01575033, -0.00388251, 0.00047300, 101.81400299, -40.62634277, 26.25000000, 0.00000000
1, 1.6600, 83, 0.00481317, -0.04125337, 0.99901634, -0.01261016, -0.06184109, -0.04278670, -11.99563980, -2.92583585, 14.47297001, 0.65763640, 1.26901388, 83.05128479, 0.74864316, 0.00304521, -0.01209494, -0.66285586, 0.01594749, -0.00376745, 0.00013716, 101.81400299, -40.62634277, 26.25000000, 0.00000000
1, 1.6800, 84, 0.00444765, -0.04194035, 0.99944395, -0.01402579, 0.02770352, 0.01092571, -13.09788895, -4.37395668, 14.32134151, 0.65758580, 1.26865149, 83.05118561, 0.74864376, 0.00304343, -0.01209228, -0.66285527, 0.01656138, -0.00448963, 0.00060444, 101.81400299, -40.62634277, 26.25000000, 0.00000000
1, 1.7000, 85, 0.00366023, -0.04239696, 0.99966449, -0.06563523, 0.09660037, 0.01483973, -12.98186302, -3.63569903, 13.95743179, 0.65609264, 1.26656747, 83.05107880, 0.74864441, 0.00304112, -0.01207003, -0.66285491, 0.01732732, -0.00492152, 0.00084731, 101.81400299, -40.62634277, 26.25000000, 0.00000000
1, 1.7200, 86, 0.00428812, -0.04143141, 0.99920565, 0.03700423, -0.01134865, 0.06787620, -12.54676437, -3.80606627, 13.95743179, 0.66172236, 1.28466201, 83.05596161, 0.74861562, 0.00310954, -0.01222066, -0.66288435, 0.01686517, -0.00402754, 0.00034546, 101.81400299, -40.62634277, 26.25000000, 0.00000000
1, 1.7400, 87, 0.00444662, -0.04150482, 0.99937969, 0.05904246, -0.08013637, -0.03389234, -13.03987408, -2.92583585, 14.26068783, 0.66243088, 1.28534138, 83.05654907, 0.74861223, 0.00310891, -0.01222919, -0.66288811, 0.01685851, -0.00414489, 0.00052652, 101.81400299, -40.62634277, 26.25000000, 0.00000000
1, 1.7600, 88, 0.00493836, -0.04197300, 0.99935669, 0.07081573, 0.02282054, 0.04518771, -12.98186302, -3.26657033, 14.38199425, 0.66975170, 1.32151139, 83.04643250, 0.74866945, 0.00326924, -0.01250809, -0.66281742, 0.01636104, -0.00462970, 0.00052599, 101.81400299, -40.62634277, 26.25000000, 0.00000000
1, 1.7800, 89, 0.00384978, -0.04136284, 0.99924117, 0.05069786, 0.02252376, -0.00410522, -13.30093288, -4.14680099, 15.10980988, 0.67013747, 1.32107592, 83.04660797, 0.74866849, 0.00326422, -0.01250747, -0.66281855, 0.01808059, -0.00415801, 0.00039783, 101.81400299, -40.62634277, 26.25000000, 0.00000000
1, 1.8000, 90, 0.00435922, -0.04124966, 0.99961001, 0.11156187, 0.00352173, 0.05362749, -12.63378239, -3.29496479, 14.56394482, 0.67156583, 1.32093513, 83.04573822, 0.74867356, 0.00325398, -0.01251484, -0.66281277, 0.01755927, -0.00403469, 0.00076000, 101.81400299, -40.62634277, 26.25000000, 0.00000000
1, 1.8200, 91, 0.00479314, -0.04094471, 0.99842614, 0.05170237, -0.04712522, -0.00732734, -13.21391487, -4.00482798, 14.29101849, 0.68224430, 1.36740994, 83.03712463, 0.74872172, 0.00345210, -0.01288046, -0.66275036, 0.01759579, -0.00390542, -0.00042544, 101.81400299, -40.62634277, 26.25000000, 0.00000000
1, 1.8400, 92, 0.00523586, -0.04157493, 0.99941462, 0.03129206, -0.03747703, 0.00332363, -12.80782318, -3.46533179, 14.13938999, 0.68242663, 1.36801040, 83.03728485, 0.74872077, 0.00345440, -0.01288544, -0.66275132, 0.01750107, -0.00456643, 0.00060123, 101.81400299, -40.62634277, 26.25000000, 0.00000000
1, 1.8600, 93, 0.00586640, -0.04124464, 0.99940199, -0.03770578, 0.08636405, 0.00513814, -12.89484119, -3.55051589, 14.80655289, 0.69002891, 1.37279344, 83.02971649, 0.74876457, 0.00343154, -0.01296088, -0.66270041, 0.01686065, -0.00423184, 0.00057147, 101.81400299, -40.62634277, 26.25000000, 0.00000000
1, 1.8800, 94, 0.00383272, -0.04146899, 0.99932712, 0.04510284, -0.04178148, 0.00796108, -12.74980831, -2.92583585, 14.29101849, 0.69098145, 1.37362659, 83.02965546, 0.74876493, 0.00343013, -0.01297183, -0.66269988, 0.01900016, -0.00460124, 0.00051415, 101.81400299, -40.62634277, 26.25000000, 0.00000000
1, 1.9000, 95, 0.00453299, -0.04147866, 0.99899572, 0.01455215, -0.02232980, -0.03035889, -12.98186302, -3.55051589, 14.65492821, 0.69142210, 1.37466645, 83.03028107, 0.74876124, 0.00343334, -0.01298116, -0.66270381, 0.01831201, -0.00464073, 0.00018331, 101.81400299, -40.62634277, 26.25000000, 0.00000000
1, 1.9200, 96, 0.00405873, -0.04147273, 0.99873310, 0.00408907, -0.01253687, 0.04955122, -12.69179726, -3.49372721, 14.38199425, 0.68179262, 1.36335444, 83.02317047, 0.74880260, 0.00343003, -0.01285178, -0.66265970, 0.01869199, -0.00455050, -0.00008205, 101.81400299, -40.62634277, 26.25000000, 0.00000000
1, 1.9400, 97, 0.00463772, -0.04125259, 0.99898118, -0.11797559, 0.04536530, -0.04516574, -13.01086712, -3.69248891, 14.13938999, 0.68026137, 1.36285448, 83.02375793, 0.74879915, 0.00343721, -0.01283964, -0.66266376, 0.01801663, -0.00422758, 0.00015087, 101.81400299, -40.62634277, 26.25000000, 0.00000000
1, 1.9600, 98, 0.00411280, -0.04192842, 0.99891967, -0.01375264, 0.01829938, 0.01877593, -12.95285606, -3.80606627, 14.98850822, 0.68719375, 1.39809215, 83.02334595, 0.74880016, 0.00359567, -0.01310997, -0.66265643, 0.01853526, -0.00489937, 0.00012269, 101.81400299, -40.62634277, 26.25000000, 0.00000000
1, 1.9800, 99, 0.00449858, -0.04174022, 0.99904472, 0.05788626, -0.03039448, -0.01423604, -13.09788895, -4.74308538, 14.65492821, 0.68856370, 1.39910209, 83.02353668, 0.74879909, 0.00359258, -0.01312448, -0.66265744, 0.01877505, -0.00483692, 0.00025472, 101.81400299, -40.62634277, 26.25000000, 0.00000000
1, 2.0000, 100, 0.00460296, -0.04166599, 0.99883610, -0.02389301, 0.02810287, -0.03019506, -13.03987408, -3.32335997, 14.89752865, 0.68708372, 1.39791226, 83.02433014, 0.74879450, 0.00359546, -0.01310813, -0.66266292, 0.01867467, -0.00478271, 0.00004283, 101.81400299, -40.62634277, 26.25000000, 0.00000000
1, 2.0200, 101, 0.00551275, -0.04153237, 0.99831456, 0.00721228, -0.02119431, -0.04282562, -12.98186302, -3.26657033, 14.56394482, 0.69145769, 1.43544042, 83.01438141, 0.74885041, 0.00378277, -0.01337894, -0.66259319, 0.01813286, -0.00470405, -0.00047622, 101.81400299, -40.62634277, 26.25000000, 0.00000000
1, 2.0400, 102, 0.00444489, -0.04145852, 0.99887353, 0.04830902, -0.08029987, 0.05299833, -13.01086712, -2.98262548, 15.04915714, 0.69192880, 1.43678617, 83.01383972, 0.74885350, 0.00378741, -0.01339048, -0.66258949, 0.01948632, -0.00463660, 0.00008715, 101.81400299, -40.62634277, 26.25000000, 0.00000000
1, 2.0600, 103, 0.00418458, -0.04125447, 0.99981946, 0.04056557, -0.02552052, -0.01004530, -13.18490696, -3.46533179, 14.80655289, 0.69195247, 1.42809129, 83.00425720, 0.74890935, 0.00373586, -0.01333411, -0.66252780, 0.01976652, -0.00439659, 0.00102301, 101.81400299, -40.62634277, 26.25000000, 0.00000000
1, 2.0800, 104, 0.00460401, -0.04158758, 0.99920398, -0.03262932, 0.05386273, -0.00471884, -12.83683014, -3.49372721, 14.32134151, 0.69135100, 1.42725658, 83.00413513, 0.74891007, 0.00373495, -0.01332519, -0.66252720, 0.01917926, -0.00475254, 0.00041975, 101.81400299, -40.62634277, 26.25000000, 0.00000000
1, 2.1000, 105, 0.00516606, -0.04135448, 0.99964434, -0.04248269, 0.04376652, -0.05461042, -12.98186302, -3.60730481, 13.92710876, 0.69006741, 1.42612863, 83.00521851, 0.74890381, 0.00373694, -0.01331036, -0.66253453, 0.01860207, -0.00448302, 0.00084715, 101.81400299, -40.62634277, 26.25000000, 0.00000000
1, 2.1200, 106, 0.00455280, -0.04154591, 0.99965888, 0.09956178, 0.00606573, 0.03083651, -12.69179726, -4.28877354, 14.74590015, 0.67956567, 1.40763307, 82.99538422, 0.74896115, 0.00369750, -0.01312910, -0.66247356, 0.01902151, -0.00455326, 0.00086525, 101.81400299, -40.62634277, 26.25000000, 0.00000000
1, 2.1400, 107, 0.00423709, -0.04154515, 0.99962360, -0.02119199, -0.03553473, -0.01891388, -12.72080517, -4.00482798, 14.89752865, 0.67935461, 1.40838099, 82.99581146, 0.74895871, 0.00370325, -0.01313275, -0.66247624, 0.01920599, -0.00447423, 0.00082620, 101.81400299, -40.62634277, 26.25000000, 0.00000000
1, 2.1600, 108, 0.00418293, -0.04165428, 0.99908036, 0.00176630, 0.01417542, 0.03493763, -12.60477543, -3.06780863, 14.86720562, 0.66372931, 1.36525822, 82.97866821, 0.74905926, 0.00355412, -0.01276114, -0.66237062, 0.01926096, -0.00460516, 0.00028898, 101.81400299, -40.62634277, 26.25000000, 0.00000000
1, 2.1800, 109, 0.00379718, -0.04155139, 0.99913377, -0.02764820, 0.05339246, -0.00155887, -12.98186302, -3.55051589, 14.74590015, 0.66286623, 1.36408734, 82.97847748, 0.74906033, 0.00355297, -0.01274850, -0.66236955, 0.01889218, -0.00422422, 0.00031623, 101.81400299, -40.62634277, 26.25000000, 0.00000000
1, 2.2000, 110, 0.00439095, -0.04045537, 0.99904364, 0.00307624, 0.03394647, -0.03263640, -12.83683014, -3.52212167, 14.10906029, 0.66291958, 1.36380053, 82.97898865, 0.74905747, 0.00355102, -0.01274692, -0.66237295, 0.01827921, -0.00312438, 0.00017132, 101.81400299, -40.62634277, 26.25000000, 0.00000000
1, 2.2200, 111, 0.00451725, -0.04152535, 0.99951929, 0.02424282, -0.04535884, 0.05262976, -12.72080517, -3.18138719, 14.41231632, 0.65227020, 1.32885361, 82.95233917, 0.74921256, 0.00341570, -0.01245775, -0.66220361, 0.01780034, -0.00406183, 0.00068914, 101.81400299, -40.62634277, 26.25000000, 0.00000000
1, 2.2400, 112, 0.00442882, -0.04206843, 0.99897045, 0.00328333, 0.00408958, 0.05520802, -12.60477543, -2.95423126, 14.13938999, 0.65282446, 1.32902384, 82.95131683, 0.74921852, 0.00341295, -0.01246209, -0.66219682, 0.01763518, -0.00455551, 0.00016078, 101.81400299, -40.62634277, 26.25000000, 0.00000000
1, 2.2600, 113, 0.00393899, -0.04180196, 0.99946266, -0.00829249, -0.01753899, 0.00109244, -12.54676437, -3.52212167, 14.50329971, 0.65739244, 1.34918153, 82.94765472, 0.74923897, 0.00349919, -0.01262038, -0.66217035, 0.01812611, -0.00427176, 0.00064002, 101.81400299, -40.62634277, 26.25000000, 0.00000000
1, 2.2800, 114, 0.00309279, -0.04084480, 0.99860042, -0.07190254, 0.07986850, 0.02353087, -12.92384911, -3.52212167, 14.29101849, 0.65558529, 1.34808969, 82.94773865, 0.74923849, 0.00350470, -0.01260280, -0.66217113, 0.01930977, -0.00342714, -0.00025845, 101.81400299, -40.62634277, 26.25000000, 0.00000000
1, 2.3000, 115, 0.00409563, -0.04206808, 0.99895269, -0.00997896, 0.00117384, -0.00080967, -12.40173149, -3.32335997, 14.10906029, 0.65485150, 1.34767985, 82.94783783, 0.74923795, 0.00350714, -0.01259588, -0.66217196, 0.01830208, -0.00460287, 0.00015167, 101.81400299, -40.62634277, 26.25000000, 0.00000000
1, 2.3200, 116, 0.00520020, -0.04177644, 0.99911493, 0.11254104, -0.08657708, 0.08261245, -12.25669861, -5.28258181, 14.50329971, 0.65394807, 1.32993746, 82.93321991, 0.74932313, 0.00340892, -0.01247510, -0.66207826, 0.01701046, -0.00429063, 0.00029363, 101.81400299, -40.62634277, 26.25000000, 0.00000000
1, 2.3400, 117, 0.00407901, -0.04145759, 0.99958962, -0.02976017, -0.01902103, -0.07085105, -12.74980831, -3.35175443, 14.59427547, 0.65343815, 1.33010650, 82.93490601, 0.74931341, 0.00341341, -0.01247321, -0.66208941, 0.01800461, -0.00393773, 0.00075041, 101.81400299, -40.62634277, 26.25000000, 0.00000000
1, 2.3600, 118, 0.00416473, -0.04128977, 0.99908501, -0.19163056, 0.08734477, -0.05301768, -12.51775742, -4.62950802, 14.23036575, 0.65450746, 1.31772923, 82.95935822, 0.74917263, 0.00333754, -0.01239775, -0.66225040, 0.01790580, -0.00376366, 0.00023752, 101.81400299, -40.62634277, 26.25000000, 0.00000000
1, 2.3800, 119, 0.00442764, -0.04154611, 0.99890727, -0.05661554, -0.00115082, -0.02836143, -13.24292183, -4.37395668, 14.29101849, 0.65332872, 1.31771278, 82.95962524, 0.74917108, 0.00334518, -0.01239082, -0.66225225, 0.01743625, -0.00406295, 0.00006786, 101.81400299, -40.62634277, 26.25000000, 0.00000000
1, 2.4000, 120, 0.00422095, -0.04251439, 0.99948877, 0.02432212, -0.00990296, 0.03946880, -12.22769070, -3.03941441, 14.13938999, 0.65355510, 1.31765628, 82.95936584, 0.74917257, 0.00334335, -0.01239177, -0.66225058, 0.01764427, -0.00499537, 0.00069616, 101.81400299, -40.62634277, 26.25000000, 0.00000000
1, 2.4200, 121, 0.00434157, -0.04124886, 0.99957496, 0.00537710, -0.08979777, -0.02342050, -11.99563980, -3.69248891, 14.16971302, 0.64757979, 1.28787386, 82.94461823, 0.74925888, 0.00320870, -0.01216296, -0.66215783, 0.01722256, -0.00367673, 0.00071286, 101.81400299, -40.62634277, 26.25000000, 0.00000000
1, 2.4400, 122, 0.00438893, -0.04037276, 0.99846798, 0.01528554, -0.06974520, -0.05238003, -13.09788895, -4.65790224, 14.71557713, 0.64766645, 1.28873026, 82.94541931, 0.74925417, 0.00321317, -0.01216904, -0.66216308, 0.01696640, -0.00280670, -0.00044105, 101.81400299, -40.62634277, 26.25000000, 0.00000000
1, 2.4600, 123, 0.00490369, -0.04255837, 0.99913937, -0.03252763, 0.01055683, 0.01257075, -12.83683014, -3.15299273, 14.04841518, 0.63021308, 1.27116632, 82.93111420, 0.74933708, 0.00322429, -0.01195375, -0.66207308, 0.01645539, -0.00494542, 0.00033582, 101.81400299, -40.62634277, 26.25000000, 0.00000000
1, 2.4800, 124, 0.00421681, -0.04202297, 0.99849910, 0.05954793, -0.04428760, 0.00152011, -13.09788895, -3.52212167, 14.44264698, 0.63179195, 1.27184761, 82.93046570, 0.74934083, 0.00321783, -0.01196735, -0.66206861, 0.01684411, -0.00415080, -0.00033910, 101.81400299, -40.62634277, 26.25000000, 0.00000000
1, 2.5000, 125, 0.00383494, -0.04138161, 1.00006223, 0.05985975, -0.06418648, -0.00931440, -13.21391487, -2.58510232, 14.13938999, 0.63303095, 1.27272820, 82.93031311, 0.74934167, 0.00321480, -0.01198027, -0.66206735, 0.01724285, -0.00346556, 0.00119190, 101.81400299, -40.62634277, 26.25000000, 0.00000000
1, 2.5200, 126, 0.00435939, -0.04229609, 0.99905485, 0.08926240, -0.00403934, 0.03268798, -12.86583805, -3.35175443, 14.04841518, 0.62050724, 1.24040210, 82.91000366, 0.74946004, 0.00310783, -0.01169710, -0.66193908, 0.01640770, -0.00432362, 0.00022204, 101.81400299, -40.62634277, 26.25000000, 0.00000000
1, 2.5400, 127, 0.00460374, -0.04230542, 0.99870557, -0.02280535, 0.05400918, -0.01259769, -12.31471348, -3.06780863, 14.23036575, 0.62049168, 1.23974407, 82.91018677, 0.74945897, 0.00310415, -0.01169270, -0.66194034, 0.01590494, -0.00424699, -0.00013353, 101.81400299, -40.62634277, 26.25000000, 0.00000000
1, 2.5600, 128, 0.00467264, -0.04138865, 0.99885708, 0.01701668, 0.01517962, 0.03430055, -13.15590000, -2.55670714, 14.16971302, 0.63609987, 1.27735984, 82.88056946, 0.74962890, 0.00321628, -0.01202968, -0.66174120, 0.01582713, -0.00332654, -0.00002715, 101.81400299, -40.62634277, 26.25000000, 0.00000000
1, 2.5800, 129, 0.00513130, -0.04161365, 0.99958867, -0.01859607, -0.06262817, -0.07968013, -12.66279030, -2.69867992, 13.92710876, 0.63544971, 1.27827406, 82.88199615, 0.74962062, 0.00322596, -0.01203187, -0.66175056, 0.01604284, -0.00378522, 0.00073174, 101.81400299, -40.62634277, 26.25000000, 0.00000000
1, 2.6000, 130, 0.00472566, -0.04253963, 0.99831825, -0.01960058, 0.00702082, -0.07645801, -12.83683014, -3.06780863, 14.04841518, 0.63497549, 1.27833402, 82.88395691, 0.74960929, 0.00322961, -0.01202947, -0.66176343, 0.01644576, -0.00475831, -0.00049169, 101.81400299, -40.62634277, 26.25000000, 0.00000000
1, 2.6200, 131, 0.00422003, -0.04057173, 1.00033498, -0.08075704, 0.03596782, -0.07424685, -12.40173149, -4.48753500, 14.74590015, 0.64568990, 1.30652034, 82.87049866, 0.74968618, 0.00332088, -0.01227609, -0.66167134, 0.01724289, -0.00280244, 0.00143486, 101.81400299, -40.62634277, 26.25000000, 0.00000000
1, 2.6400, 132, 0.00403946, -0.04089514, 0.99853081, -0.14127041, 0.01516313, -0.04459543, -12.40173149, -2.95423126, 14.71557713, 0.64342636, 1.30640531, 82.87173462, 0.74967897, 0.00333516, -0.01226224, -0.66167969, 0.01762939, -0.00326284, -0.00034592, 101.81400299, -40.62634277, 26.25000000, 0.00000000
1, 2.6600, 133, 0.00378081, -0.04027433, 1.00023365, -0.01720596, -0.06258258, -0.63486010, -12.60477543, -3.18138719, 14.35167217, 0.65863538, 1.35483611, 82.89785767, 0.74952644, 0.00351824, -0.01266606, -0.66184384, 0.01789880, -0.00254542, 0.00132473, 101.81400299, -40.62634277, 26.25000000, 0.00000000
1, 2.6800, 134, 0.00467448, -0.04186410, 0.99914807, -0.13618872, 0.07830921, -2.11804152, -12.72080517, -3.06780863, 14.41231632, 0.65696388, 1.35453558, 82.94232941, 0.74926949, 0.00353235, -0.01265307, -0.66213495, 0.01784118, -0.00443125, 0.00033956, 101.81400299, -40.62634277, 26.25000000, 0.00000000
1, 2.7000, 135, 0.00439814, -0.04444644, 0.99893993, -0.04654500, 0.06966110, -1.48525536, -12.66279030, -2.92583585, 14.32134151, 0.65680581, 1.35406852, 82.96914673, 0.74911451, 0.00353364, -0.01264828, -0.66231036, 0.01810804, -0.00700780, 0.00025776, 101.81400299, -40.62634277, 26.25000000, 0.00000000
1, 2.7200, 136, 0.00465749, -0.04246762, 0.99896556, 0.09267810, 0.00200412, -0.10246493, -13.06888199, -2.98262548, 14.53362274, 0.65945053, 1.38298714, 82.95326996, 0.74920511, 0.00368174, -0.01285310, -0.66220319, 0.01813502, -0.00505627, 0.00019352, 101.81400299, -40.62634277, 26.25000000, 0.00000000
1, 2.7400, 137, 0.00330147, -0.03920498, 0.99902362, 0.16698162, -0.07646602, -1.02911127, -13.03987408, -2.84065270, 14.56394482, 0.66343689, 1.38475764, 82.98103333, 0.74904466, 0.00366903, -0.01288682, -0.66238403, 0.01972952, -0.00184784, 0.00009974, 101.81400299, -40.62634277, 26.25000000, 0.00000000
1, 2.7600, 138, 0.00501225, -0.04348990, 0.99963444, 0.14669339, 0.20195927, -2.60217476, -12.31471348, -4.14680099, 14.35167217, 0.67972183, 1.43376040, 83.03933716, 0.74870580, 0.00385265, -0.01329927, -0.66275787, 0.01800565, -0.00617328, 0.00091795, 101.81400299, -40.62634277, 26.25000000, 0.00000000
1, 2.7800, 139, 0.00574590, -0.04335072, 0.99886817, 0.05100191, 0.09095437, -0.13742441, -13.06888199, -3.12459826, 14.04841518, 0.68070561, 1.43181121, 83.04119873, 0.74869519, 0.00383516, -0.01329216, -0.66277009, 0.01813296, -0.00632364, 0.00016903, 101.81400299, -40.62634277, 26.25000000, 0.00000000
1, 2.8000, 140, 0.00553494, -0.04264428, 0.99910408, 0.01051014, 0.03062506, 0.20735468, -12.92384911, -3.46533179, 14.98850822, 0.68101317, 1.43069136, 83.03699493, 0.74871951, 0.00382618, -0.01328676, -0.66274267, 0.01831574, -0.00561537, 0.00036988, 101.81400299, -40.62634277, 26.25000000, 0.00000000
1, 2.8200, 141, 0.00368896, -0.03938848, 0.99945849, 0.09230575, 0.00199191, 0.04624395, -12.31471348, -3.55051589, 14.38199425, 0.69909000, 1.46875846, 83.02822113, 0.74876910, 0.00392723, -0.01364030, -0.66267896, 0.02052023, -0.00252595, 0.00057800, 101.81400299, -40.62634277, 26.25000000, 0.00000000
1, 2.8400, 142, 0.00393786, -0.04100591, 0.99957770, 0.08299613, -0.05785926, 0.06344834, -12.60477543, -2.89744139, 14.23036575, 0.70091593, 1.46998096, 83.02665710, 0.74877810, 0.00392218, -0.01365890, -0.66266841, 0.02057263, -0.00430047, 0.00078555, 101.81400299, -40.62634277, 26.25000000, 0.00000000
1, 2.8600, 143, 0.00462192, -0.04265258, 0.99870116, -0.00937581, 0.00047220, 0.23599233, -12.95285606, -3.32335997, 14.95818138, 0.70188206, 1.49666834, 83.01123810, 0.74886602, 0.00406836, -0.01383939, -0.66256446, 0.01989954, -0.00599400, -0.00000999, 101.81400299, -40.62634277, 26.25000000, 0.00000000
1, 2.8800, 144, 0.00500450, -0.04192808, 0.99815172, 0.02029448, 0.05067357, 0.22796480, -12.63378239, -2.95423126, 14.56394482, 0.70253718, 1.49571252, 83.00685883, 0.74889141, 0.00405803, -0.01383709, -0.66253591, 0.01997410, -0.00531112, -0.00058266, 101.81400299, -40.62634277, 26.25000000, 0.00000000
1, 2.9000, 145, 0.00472624, -0.04048746, 0.99969012, 0.14294402, -0.02711854, 0.20279403, -12.57577133, -2.86904716, 14.35167217, 0.70535618, 1.49631476, 83.00308228, 0.74891335, 0.00404263, -0.01385746, -0.66251081, 0.02024541, -0.00383957, 0.00088422, 101.81400299, -40.62634277, 26.25000000, 0.00000000
1, 2.9200, 146, 0.00427027, -0.04172050, 0.99893981, 0.05273243, -0.05830728, 0.02420775, -12.74980831, -2.69867992, 14.41231632, 0.69069016, 1.48097837, 82.98274231, 0.74903113, 0.00404737, -0.01367317, -0.66238135, 0.02056082, -0.00498202, 0.00019051, 101.81400299, -40.62634277, 26.25000000, 0.00000000
1, 2.9400, 147, 0.00437721, -0.04168119, 0.99949962, 0.00184592, -0.02920496, -0.03320302, -12.77881527, -2.75546956, 13.83613300, 0.69113535, 1.48124528, 82.98308563, 0.74902916, 0.00404604, -0.01367748, -0.66238356, 0.02034643, -0.00480760, 0.00074347, 101.81400299, -40.62634277, 26.25000000, 0.00000000
1, 2.9600, 148, 0.00407850, -0.04040875, 1.00004005, -0.03979694, 0.02988269, 0.08907943, -12.57577133, -2.98262548, 14.35167217, 0.70899200, 1.48762763, 82.96266937, 0.74914747, 0.00396376, -0.01382311, -0.66224718, 0.02063443, -0.00350674, 0.00122090, 101.81400299, -40.62634277, 26.25000000, 0.00000000
1, 2.9800, 149, 0.00521461, -0.04158329, 0.99826115, -0.00897865, 0.00048523, 0.07736947, -12.63378239, -2.98262548, 14.16971302, 0.70884836, 1.48748398, 82.96108246, 0.74915665, 0.00396368, -0.01382140, -0.66223687, 0.01961718, -0.00508237, -0.00049268, 101.81400299, -40.62634277, 26.25000000, 0.00000000
1, 3.0000, 150, 0.00462244, -0.04133680, 0.99962658, 0.09210715, 0.00198540, 0.12555538, -12.80782318, -2.95423126, 14.47297001, 0.71026802, 1.48710454, 82.95846558, 0.74917179, 0.00395189, -0.01382721, -0.66221964, 0.02020287, -0.00478956, 0.00085994, 101.81400299, -40.62634277, 26.25000000, 0.00000000
1, 3.0200, 151, 0.00262102, -0.03917696, 1.00007176, -0.07857589, -0.03039046, -0.25020242, -12.43073845, -3.46533179, 14.92785549, 0.72409248, 1.52319801, 82.96250916, 0.74914712, 0.00407062, -0.01414290, -0.66224015, 0.02256090, -0.00277730, 0.00121254, 101.81400299, -40.62634277, 26.25000000, 0.00000000
1, 3.0400, 152, 0.00485751, -0.03643231, 0.99927050, -0.25607133, 0.08651014, -2.79998136, -12.34371662, -3.20978141, 15.14013672, 0.72080833, 1.52377772, 83.02691650, 0.74877465, 0.00410339, -0.01412540, -0.66266149, 0.02059138, -0.00012238, 0.00028315, 101.81400299, -40.62634277, 26.25000000, 0.00000000
1, 3.0600, 153, 0.00509785, -0.04328697, 0.99911278, -0.15092529, 0.06823432, -4.25963259, -12.40173149, -2.67028546, 15.29176521, 0.72414327, 1.55717635, 83.10353088, 0.74832982, 0.00428437, -0.01436003, -0.66315752, 0.02037803, -0.00695107, 0.00046098, 101.81400299, -40.62634277, 26.25000000, 0.00000000
1, 3.0800, 154, 0.00386899, -0.04116892, 0.99987274, 0.03000046, 0.05099180, -3.64838099, -12.40173149, -3.15299273, 15.14013672, 0.72633785, 1.55845726, 83.18464661, 0.74786031, 0.00428763, -0.01437806, -0.66368669, 0.02219342, -0.00488244, 0.00113452, 101.81400299, -40.62634277, 26.25000000, 0.00000000
1, 3.1000, 155, 0.00386971, -0.04429248, 0.99827737, -0.02858115, 0.24925074, -5.64095831, -12.19868374, -3.66409349, 14.98850822, 0.72890049, 1.55752051, 83.28636932, 0.74727094, 0.00427825, -0.01438300, -0.66435009, 0.02218590, -0.00812251, -0.00030579, 101.81400299, -40.62634277, 26.25000000, 0.00000000
1, 3.1200, 156, 0.00658656, -0.04247015, 0.99908990, 0.37778479, -0.07336409, -0.33804223, -12.45974255, -3.38014865, 15.10980988, 0.73556054, 1.60118520, 83.29355621, 0.74722725, 0.00448894, -0.01470603, -0.66439074, 0.01989713, -0.00634057, 0.00042649, 101.81400299, -40.62634277, 26.25000000, 0.00000000
1, 3.1400, 157, 0.00374536, -0.04010035, 1.00021827, 0.12329236, -0.03735460, 0.02415975, -12.74980831, -3.52212167, 15.26143837, 0.73742127, 1.60194135, 83.29356384, 0.74722725, 0.00448119, -0.01472175, -0.66439050, 0.02307369, -0.00400877, 0.00145126, 101.81400299, -40.62634277, 26.25000000, 0.00000000
1, 3.1600, 158, 0.00511402, -0.03997048, 1.00062323, -0.17318943, 0.28668606, -0.66052616, -12.31471348, -3.86285591, 14.44264698, 0.75038987, 1.64120674, 83.31198883, 0.74711877, 0.00462675, -0.01505219, -0.66450411, 0.02168554, -0.00383190, 0.00184695, 101.81400299, -40.62634277, 26.25000000, 0.00000000
1, 3.1800, 159, 0.00471244, -0.04232977, 0.99977142, 0.59755415, 2.48762798, -1.67063618, -12.57577133, -3.52212167, 14.89752865, 0.76295054, 1.59570444, 83.34323120, 0.74694049, 0.00428498, -0.01482724, -0.66471177, 0.02238771, -0.00659404, 0.00112497, 101.81400299, -40.62634277, 26.25000000, 0.00000000
1, 3.2000, 160, 0.00365869, -0.04226627, 0.99926418, 0.52109885, 1.19266117, -0.12317444, -12.51775742, -3.26657033, 15.23111153, 0.77411807, 1.57152832, 83.34677887, 0.74692160, 0.00407237, -0.01473434, -0.66473645, 0.02285731, -0.00675516, 0.00060292, 101.81400299, -40.62634277, 26.25000000, 0.00000000
1, 3.2200, 161, 0.00265588, -0.04020364, 0.99941200, 0.59995550, 1.37297750, -0.30436048, -12.98186302, -3.26657033, 14.32134151, 0.79976904, 1.59683299, 83.34140778, 0.74695235, 0.00405129, -0.01504823, -0.66469496, 0.02393317, -0.00503005, 0.00065756, 101.81400299, -40.62634277, 26.25000000, 0.00000000
1, 3.2400, 162, 0.00593331, -0.03688709, 1.00094342, 0.90245986, 2.28313661, -0.99047899, -12.69179726, -2.92583585, 14.56394482, 0.81806308, 1.55192792, 83.36316681, 0.74682891, 0.00367434, -0.01486100, -0.66484004, 0.02043521, -0.00201535, 0.00202027, 101.81400299, -40.62634277, 26.25000000, 0.00000000
1, 3.2600, 163, -0.00350793, -0.04483463, 0.99915391, 0.79674709, 1.93325663, -1.24300170, -12.66279030, -2.64189100, 14.77622700, 0.84261090, 1.55298352, 83.37806702, 0.74674326, 0.00352243, -0.01500984, -0.66493380, 0.02913789, -0.01030699, 0.00061602, 101.81400299, -40.62634277, 26.25000000, 0.00000000
1, 3.2800, 164, 0.00000721, -0.04629819, 1.00092113, 1.69381666, 2.82234335, -0.73907995, -12.45974255, -3.74927759, 14.95818138, 0.87820113, 1.49481869, 83.39208221, 0.74666536, 0.00295473, -0.01483703, -0.66502786, 0.02551174, -0.01227054, 0.00245441, 101.81400299, -40.62634277, 26.25000000, 0.00000000
1, 3.3000, 165, -0.02484066, -0.03135492, 1.00860107, 6.69896889, 10.00202560, 8.99713802, -12.25669861, -3.69248891, 14.86720562, 1.01269996, 1.28139639, 83.20023346, 0.74778658, 0.00081565, -0.01422858, -0.66378629, 0.04836532, 0.00178849, 0.00939157, 101.81400299, -40.62634277, 26.25000000, 0.00000000
1, 3.3200, 166, -0.00421231, -0.04877166, 0.99592239, 4.05396271, 6.48941898, 10.03322887, -13.03987408, -2.95423126, 15.29176521, 1.09343529, 1.15973234, 83.01222992, 0.74887675, -0.00043892, -0.01390175, -0.66256338, 0.02428431, -0.01844872, -0.00248518, 101.81400299, -40.62634277, 26.25000000, 0.00000000
1, 3.3400, 167, -0.00227777, -0.03066215, 0.99744993, 4.28636503, 6.69213915, 5.00311422, -13.24292183, -3.38014865, 15.23111153, 1.17623174, 1.02512169, 82.92350769, 0.74938941, -0.00176895, -0.01349955, -0.66198957, 0.02015303, -0.00169511, -0.00186426, 101.81400299, -40.62634277, 26.25000000, 0.00000000
1, 3.3600, 168, -0.00349966, -0.02673986, 0.99599630, 3.30679321, 5.10534286, 1.00839436, -12.60477543, -3.46533179, 14.71557713, 1.24721801, 0.96378583, 82.91006470, 0.74946553, -0.00258917, -0.01350828, -0.66190064, 0.01929160, 0.00084955, -0.00351751, 101.81400299, -40.62634277, 26.25000000, 0.00000000
1, 3.3800, 169, -0.00719199, -0.03527444, 0.99866122, 1.90104830, 3.19364715, -0.72495449, -13.12689590, -2.92583585, 15.20078564, 1.28475189, 0.90118945, 82.92569733, 0.74937350, -0.00319447, -0.01331618, -0.66200596, 0.02232375, -0.00849438, -0.00042467, 101.81400299, -40.62634277, 26.25000000, 0.00000000
1, 3.4000, 170, -0.01120806, -0.03436024, 0.99889606, 0.96745038, 1.86608768, -0.30675322, -12.86583805, -3.49372721, 14.41231632, 1.30527508, 0.86160177, 82.93248749, 0.74933308, -0.00355665, -0.01317611, -0.66205269, 0.02546139, -0.00807469, -0.00023302, 101.81400299, -40.62634277, 26.25000000, 0.00000000
1, 3.4200, 171, -0.01274471, -0.02951865, 0.99824005, 1.67874372, 2.98130345, 0.32921353, -12.86583805, -2.72707415, 14.77622700, 1.34606254, 0.84218127, 82.91849518, 0.74941218, -0.00393721, -0.01328431, -0.66195875, 0.02650183, -0.00383900, -0.00111766, 101.81400299, -40.62634277, 26.25000000, 0.00000000
1, 3.4400, 172, -0.01138850, -0.03045221, 0.99959236, 0.78447872, 1.77376282, 0.52436471, -12.95285606, -4.51592970, 14.68525124, 1.36162329, 0.80663657, 82.91034698, 0.74945801, -0.00424528, -0.01314147, -0.66190791, 0.02464090, -0.00516849, 0.00028072, 101.81400299, -40.62634277, 26.25000000, 0.00000000
1, 3.4600, 173, -0.01057882, -0.03194765, 0.99969643, 0.78924477, 0.89809942, -0.41817132, -11.67656612, -3.91964483, 15.01883030, 1.39294684, 0.85105157, 82.90999603, 0.74945992, -0.00419359, -0.01361283, -0.66189659, 0.02333406, -0.00693778, 0.00045638, 101.81400299, -40.62634277, 26.25000000, 0.00000000
1, 3.4800, 174, -0.01068244, -0.02599354, 0.99823493, -0.08369986, -0.28919560, -0.76764232, -13.15590000, -2.35794544, 15.01883030, 1.39055276, 0.85905010, 82.92552948, 0.74937040, -0.00412987, -0.01365187, -0.66199750, 0.02445187, -0.00146195, -0.00127008, 101.81400299, -40.62634277, 26.25000000, 0.00000000
1, 3.5000, 175, -0.00975433, -0.02281539, 0.99972707, -0.58759767, -1.23219359, -0.31807157, -12.77881527, -3.01101995, 14.56394482, 1.38005757, 0.88393962, 82.92881012, 0.74935228, -0.00391702, -0.01375409, -0.66201717, 0.02383222, 0.00194253, 0.00006472, 101.81400299, -40.62634277, 26.25000000, 0.00000000
1, 3.5200, 176, -0.01376776, -0.03297381, 0.99974996, 0.60845923, -0.80642933, 0.66581345, -13.12689590, -3.49372721, 14.32134151, 1.40068877, 0.95245528, 82.90724945, 0.74947739, -0.00365872, -0.01432056, -0.66186500, 0.02872057, -0.00830859, 0.00060502, 101.81400299, -40.62634277, 26.25000000, 0.00000000
1, 3.5400, 177, -0.01571878, -0.03096996, 0.99942416, 1.24862838, -0.90636933, 0.26538926, -12.83683014, -3.38014865, 14.98850822, 1.42666495, 0.97020894, 82.90470886, 0.74949151, -0.00372637, -0.01458661, -0.66184282, 0.03137557, -0.00670003, 0.00020452, 101.81400299, -40.62634277, 26.25000000, 0.00000000
1, 3.5600, 178, -0.01035136, -0.02916843, 1.00116539, 0.90892541, -0.97106659, -1.15035975, -12.57577133, -3.40854311, 14.83687973, 1.45670176, 1.04454207, 82.92379761, 0.74938142, -0.00349086, -0.01524675, -0.66195387, 0.02632047, -0.00526165, 0.00186590, 101.81400299, -40.62634277, 26.25000000, 0.00000000
1, 3.5800, 179, -0.01107290, -0.03315953, 0.99802035, 0.24951403, -1.04062235, -0.18247610, -12.72080517, -3.46533179, 14.65492821, 1.46065748, 1.06551600, 82.92552948, 0.74937159, -0.00339531, -0.01540679, -0.66196185, 0.02833293, -0.00980828, -0.00104617, 101.81400299, -40.62634277, 26.25000000, 0.00000000
1, 3.6000, 180, -0.01052460, -0.03605420, 0.99780899, -0.50320464, -0.99214983, 0.99045509, -13.01086712, -3.29496479, 14.50329971, 1.44927001, 1.08445621, 82.90531158, 0.74948895, -0.00321413, -0.01546427, -0.66182846, 0.02816171, -0.01263467, -0.00111121, 101.81400299, -40.62634277, 26.25000000, 0.00000000
1, 3.6200, 181, -0.01283649, -0.03476969, 0.99932581, -0.65459764, -0.99439228, 0.82399368, -12.66279030, -3.55051589, 14.44264698, 1.44624031, 1.15639699, 82.88527679, 0.74960536, -0.00278149, -0.01591671, -0.66168785, 0.03133963, -0.01110373, 0.00035603, 101.81400299, -40.62634277, 26.25000000, 0.00000000
1, 3.6400, 182, -0.01178963, -0.03010732, 1.00045264, 0.31688735, -0.90031928, 0.40792125, -12.83683014, -3.63569903, 14.68525124, 1.45379114, 1.17218113, 82.87617493, 0.74965781, -0.00274099, -0.01606333, -0.66162503, 0.03101339, -0.00641823, 0.00126733, 101.81400299, -40.62634277, 26.25000000, 0.00000000
1, 3.6600, 183, -0.01040934, -0.03276359, 0.99741453, 0.68388027, -0.41718009, 0.66283047, -12.92384911, -3.69248891, 14.20004368, 1.47572172, 1.23846555, 82.86638641, 0.74971420, -0.00250305, -0.01662326, -0.66154832, 0.02979231, -0.00946809, -0.00162944, 101.81400299, -40.62634277, 26.25000000, 0.00000000
1, 3.6800, 184, -0.00989187, -0.03476248, 0.99903196, -0.40678540, -0.67225659, 1.08311236, -12.98186302, -3.35175443, 14.53362274, 1.46590221, 1.25174809, 82.84344482, 0.74984682, -0.00236544, -0.01665298, -0.66139764, 0.03049615, -0.01155777, 0.00011352, 101.81400299, -40.62634277, 26.25000000, 0.00000000
1, 3.7000, 185, -0.00648206, -0.03156238, 0.99806315, -1.50868285, -1.56443059, 1.54360902, -12.77881527, -2.78386402, 14.86720562, 1.43520033, 1.28201032, 82.81119537, 0.75003356, -0.00199450, -0.01667319, -0.66118670, 0.02744495, -0.00804798, -0.00101589, 101.81400299, -40.62634277, 26.25000000, 0.00000000
1, 3.7200, 186, -0.01055332, -0.02852468, 1.00414383, 0.46905094, -0.51995963, 2.14822221, -12.11166573, -3.38014865, 15.17045879, 1.46507442, 1.34151685, 82.75770569, 0.75034142, -0.00185462, -0.01723409, -0.66082317, 0.03245912, -0.00454404, 0.00493091, 101.81400299, -40.62634277, 26.25000000, 0.00000000
1, 3.7400, 187, -0.01761167, -0.03303350, 1.00385165, 5.78723669, 0.44475952, 3.23654032, -12.83683014, -3.20978141, 14.83687973, 1.58286381, 1.33471048, 82.69244385, 0.75071537, -0.00267535, -0.01786727, -0.66037875, 0.03975368, -0.01036812, 0.00490651, 101.81400299, -40.62634277, 26.25000000, 0.00000000
1, 3.7600, 188, -0.00903747, -0.03046075, 0.99466711, 5.67348671, -1.47766042, 3.05049920, -12.48874950, -2.58510232, 14.53362274, 1.69665384, 1.39801562, 82.62602234, 0.75109547, -0.00306683, -0.01893584, -0.65991497, 0.03147873, -0.01046798, -0.00433433, 101.81400299, -40.62634277, 26.25000000, 0.00000000
1, 3.7800, 189, -0.01169585, -0.03180987, 0.99594015, 0.54150355, -0.57858133, 1.84707403, -12.40173149, -2.75546956, 14.10906029, 1.70374835, 1.40775073, 82.59013367, 0.75130194, -0.00306321, -0.01903952, -0.65967691, 0.03506676, -0.01287412, -0.00293882, 101.81400299, -40.62634277, 26.25000000, 0.00000000
1, 3.8000, 190, -0.00965636, -0.02592004, 1.00110281, 0.03892361, -0.03866950, 1.38347495, -12.57577133, -3.43693757, 15.07948303, 1.70556462, 1.40725243, 82.56150055, 0.75146669, -0.00308275, -0.01904594, -0.65948886, 0.03308821, -0.00663138, 0.00192583, 101.81400299, -40.62634277, 26.25000000, 0.00000000
1, 3.8200, 191, -0.01394528, -0.02713483, 1.00788009, 2.84138155, 0.58014667, 2.51180601, -12.45974255, -2.67028546, 14.92785549, 1.77340662, 1.42980576, 82.50955200, 0.75176382, -0.00340666, -0.01958269, -0.65913290, 0.03764104, -0.00804348, 0.00878196, 101.81400299, -40.62634277, 26.25000000, 0.00000000
1, 3.8400, 192, -0.01808468, -0.02161347, 1.02683616, 0.12947537, 1.27630568, 2.17634368, -12.54676437, -2.58510232, 14.41231632, 1.76056266, 1.40186465, 82.47074127, 0.75198716, -0.00348974, -0.01932438, -0.65888524, 0.04166391, -0.00260080, 0.02747839, 101.81400299, -40.62634277, 26.25000000, 0.00000000
1, 3.8600, 193, -0.00697010, -0.02711037, 1.00154471, -3.69057488, 2.33417892, 1.67517698, -12.69179726, -2.89744139, 14.65492821, 1.69616115, 1.40136838, 82.43268585, 0.75220776, -0.00307626, -0.01894980, -0.65864629, 0.02990463, -0.00803163, 0.00241724, 101.81400299, -40.62634277, 26.25000000, 0.00000000
1, 3.8800, 194, -0.00547812, -0.03639163, 0.99665660, 1.25858450, 0.96468854, 1.76906502, -12.92384911, -2.81225824, 14.44264698, 1.71975541, 1.38252008, 82.39974976, 0.75239629, -0.00334497, -0.01896077, -0.65842932, 0.02862453, -0.01736584, -0.00201309, 101.81400299, -40.62634277, 26.25000000, 0.00000000
1, 3.9000, 195, -0.00473772, -0.01940225, 1.00236237, -0.59013438, 0.97709125, 0.20008624, -12.72080517, -2.52831268, 15.04915714, 1.70375013, 1.36089551, 82.39957428, 0.75239760, -0.00336421, -0.01872686, -0.65843439, 0.02759852, -0.00033308, 0.00285393, 101.81400299, -40.62634277, 26.25000000, 0.00000000
1, 3.9200, 196, -0.01692791, -0.02313116, 1.01500547, -4.04924250, 2.51808691, -1.67191708, -13.09788895, -2.95423126, 14.53362274, 1.62675786, 1.33924854, 82.43019104, 0.75222367, -0.00297827, -0.01814317, -0.65865135, 0.03945368, -0.00264566, 0.01564686, 101.81400299, -40.62634277, 26.25000000, 0.00000000
1, 3.9400, 197, -0.00719154, -0.02273054, 0.99527496, -5.43932343, 4.14945793, -1.60656750, -12.86583805, -4.00482798, 14.32134151, 1.52491713, 1.25792646, 82.46195984, 0.75204325, -0.00277263, -0.01702488, -0.65888816, 0.02871781, -0.00139015, -0.00416559, 101.81400299, -40.62634277, 26.25000000, 0.00000000
1, 3.9600, 198, -0.01197146, -0.03311004, 0.99129254, -2.01441669, 3.77238727, -0.81061947, -12.14067268, -3.38014865, 14.50329971, 1.48671579, 1.23180759, 82.48251343, 0.75192583, -0.00266917, -0.01663434, -0.65903246, 0.03211746, -0.01086863, -0.00768990, 101.81400299, -40.62634277, 26.25000000, 0.00000000
1, 3.9800, 199, -0.01505580, -0.04248097, 0.99712771, -2.65292311, 1.65305901, -0.52234238, -13.01086712, -2.92583585, 14.80655289, 1.43884993, 1.19797063, 82.49121857, 0.75187665, -0.00254852, -0.01613727, -0.65910131, 0.03518934, -0.01909409, -0.00142215, 101.81400299, -40.62634277, 26.25000000, 0.00000000
1, 4.0000, 200, -0.01037239, -0.02708790, 1.00129688, -0.95990288, 2.02649999, 0.38260287, -13.24292183, -3.57891035, 14.98850822, 1.41765714, 1.15625358, 82.48561859, 0.75190920, -0.00265025, -0.01574158, -0.65907341, 0.02979176, -0.00306866, 0.00195782, 101.81400299, -40.62634277, 26.25000000, 0.00000000
1, 4.0200, 201, -0.01494569, -0.02705724, 1.00220096, -2.81489182, 2.46674347, -1.12692690, -12.66279030, -3.57891035, 14.77622700, 1.36867356, 1.14997947, 82.50543976, 0.75179625, -0.00236227, -0.01541910, -0.65921104, 0.03397887, -0.00244541, 0.00284329, 101.81400299, -40.62634277, 26.25000000, 0.00000000
1, 4.0400, 202, -0.01665124, -0.03165252, 1.00345087, -3.96867275, 3.16614246, -1.16737401, -13.27192974, -2.84065270, 15.20078564, 1.29144466, 1.08564770, 82.52979279, 0.75165749, -0.00222269, -0.01455332, -0.65938938, 0.03508082, -0.00570048, 0.00427605, 101.81400299, -40.62634277, 26.25000000, 0.00000000
1, 4.0600, 203, -0.02161745, -0.04315522, 0.99543470, -2.65133786, 3.68329692, -0.62713349, -13.03987408, -2.30115676, 14.95818138, 1.24277341, 1.05193806, 82.53472137, 0.75163001, -0.00209685, -0.01405226, -0.65943205, 0.03881013, -0.01649866, -0.00321057, 101.81400299, -40.62634277, 26.25000000, 0.00000000
1, 4.0800, 204, -0.01565301, -0.03811711, 0.98851591, -5.03737164, 2.84174109, -1.03809488, -12.83683014, -2.55670714, 14.74590015, 1.14079511, 0.99787754, 82.55622864, 0.75150782, -0.00173666, -0.01311119, -0.65959167, 0.03237078, -0.01061423, -0.01040844, 101.81400299, -40.62634277, 26.25000000, 0.00000000
1, 4.1000, 205, -0.02308144, -0.03982405, 1.00008917, -4.46740484, 1.86494970, -0.73437428, -12.89484119, -4.11840630, 14.56394482, 1.05326247, 0.95879990, 82.57206726, 0.75141793, -0.00138587, -0.01235130, -0.65970963, 0.03907896, -0.00994873, 0.00119427, 101.81400299, -40.62634277, 26.25000000, 0.00000000
1, 4.1200, 206, -0.03107435, -0.04375412, 1.01472604, -3.49808860, 3.51150012, -1.06900179, -12.57577133, -3.74927759, 15.29176521, 0.99099678, 0.91818553, 82.59489441, 0.75128722, -0.00120910, -0.01172678, -0.65987015, 0.04644023, -0.01190432, 0.01598138, 101.81400299, -40.62634277, 26.25000000, 0.00000000
1, 4.1400, 207, -0.02666260, -0.04406075, 0.99627393, -4.72424603, 5.93157148, -2.24853754, -13.18490696, -2.98262548, 14.47297001, 0.89714193, 0.80065018, 82.64277649, 0.75101268, -0.00126634, -0.01041634, -0.66020447, 0.04055564, -0.01181175, -0.00248422, 101.81400299, -40.62634277, 26.25000000, 0.00000000
1, 4.1600, 208, -0.03118896, -0.06035468, 0.98594272, -3.81038260, 9.17953205, -1.71552622, -13.35894775, -3.29496479, 14.89752865, 0.81792706, 0.65806007, 82.67786407, 0.75081122, -0.00156603, -0.00902600, -0.66045332, 0.04249258, -0.02711765, -0.01206011, 101.81400299, -40.62634277, 26.25000000, 0.00000000
1, 4.1800, 209, -0.04525196, -0.06474047, 0.99920446, -3.34784007, 7.44466734, 1.35046089, -12.60477543, -3.63569903, 15.26143837, 0.74715608, 0.50413901, 82.65428925, 0.75094724, -0.00199111, -0.00760925, -0.66031533, 0.05443803, -0.02949765, 0.00137263, 101.81400299, -40.62634277, 26.25000000, 0.00000000
1, 4.2000, 210, -0.04690780, -0.05226421, 1.00408101, -9.40170288, 11.75349045, 1.15996492, -13.53298759, -3.52212167, 14.47297001, 0.54966545, 0.26314265, 82.63924408, 0.75103492, -0.00208634, -0.00489169, -0.66024113, 0.05264240, -0.01469687, 0.00557954, 101.81400299, -40.62634277, 26.25000000, 0.00000000
1, 4.2200, 211, -0.03600166, -0.04120931, 0.99983066, -14.08715630, 16.58023643, 1.32065296, -13.32993984, -3.66409349, 14.47297001, 0.27017176, -0.06238117, 82.63079834, 0.75108391, -0.00213023, -0.00114768, -0.66020244, 0.03683669, 0.00052419, 0.00071943, 101.81400299, -40.62634277, 26.25000000, 0.00000000
1, 4.2400, 212, -0.03681657, -0.04814430, 0.99862248, -8.82796478, 15.72297001, -0.00379248, -13.41695881, -4.11840630, 15.07948303, 0.10842823, -0.37340152, 82.64501190, 0.75099868, -0.00286221, 0.00182240, -0.66029507, 0.03173068, -0.00212895, -0.00016385, 101.81400299, -40.62634277, 26.25000000, 0.00000000
1, 4.2600, 213, -0.05823492, -0.07076489, 1.03098643, -4.61256361, 17.08939552, -1.44876587, -13.12689590, -4.03322220, 14.98850822, 0.00710957, -0.70533311, 82.69049835, 0.75072843, -0.00411264, 0.00457995, -0.66058242, 0.04769272, -0.02148563, 0.03332438, 101.81400299, -40.62634277, 26.25000000, 0.00000000
1, 4.2800, 214, -0.07332163, -0.08973706, 1.03368020, -12.50935268, 20.97281075, -3.02030230, -12.92384911, -4.94184732, 14.62459850, -0.25733268, -1.12683427, 82.77870941, 0.75021052, -0.00481682, 0.00886196, -0.66112214, 0.05632029, -0.03725051, 0.03704315, 101.81400299, -40.62634277, 26.25000000, 0.00000000
1, 4.3000, 215, -0.04949292, -0.06171234, 0.97456557, -17.37121391, 21.96562004, -7.52451992, -13.67802048, -4.68629694, 14.32134151, -0.59552187, -1.54689372, 82.95071411, 0.74920893, -0.00504673, 0.01355527, -0.66217583, 0.02485351, -0.00630781, -0.02321791, 101.81400299, -40.62634277, 26.25000000, 0.00000000
1, 4.3200, 216, -0.04843180, -0.03248359, 0.97274017, -3.55572033, 12.13912582, -3.08974528, -14.14212322, -4.09001207, 14.74590015, -0.64339197, -1.75600684, 83.02460480, 0.74877089, -0.00595211, 0.01519505, -0.66262800, 0.01836063, 0.02633795, -0.02629792, 101.81400299, -40.62634277, 26.25000000, 0.00000000
1, 4.3400, 217, -0.06379922, -0.03837380, 1.01002562, 2.78017902, 11.14842987, -1.08499348, -13.70702457, -3.66409349, 14.32134151, -0.58652866, -1.98062170, 83.05384827, 0.74858141, -0.00762691, 0.01633174, -0.66279781, 0.03014019, 0.02186141, 0.01135298, 101.81400299, -40.62634277, 26.25000000, 0.00000000
1, 4.3600, 218, -0.07666603, -0.07285451, 0.99618441, 3.12233973, 13.82039642, 4.66408348, -14.28715611, -3.91964483, 14.26068783, -0.52542955, -2.24763036, 82.97583008, 0.74900329, -0.00955863, 0.01772881, -0.66226017, 0.03861062, -0.01440209, -0.00062930, 101.81400299, -40.62634277, 26.25000000, 0.00000000
1, 4.3800, 219, -0.08214990, -0.08510072, 0.99030751, -3.29428864, 14.61080265, 3.70210838, -14.34517097, -3.29496479, 13.80580330, -0.60237974, -2.54359961, 82.92255402, 0.74928588, -0.01075714, 0.02011267, -0.66185391, 0.03921000, -0.02711071, -0.00570328, 101.81400299, -40.62634277, 26.25000000, 0.00000000
1, 4.4000, 220, -0.06773362, -0.06650476, 0.96988940, -9.86784077, 13.35882759, 0.26905811, -14.49020386, -3.80606627, 13.83613300, -0.79639471, -2.80536509, 82.93854523, 0.74918115, -0.01100403, 0.02294283, -0.66187620, 0.01984200, -0.00673920, -0.02677124, 101.81400299, -40.62634277, 26.25000000, 0.00000000
1, 4.4200, 221, -0.08039691, -0.06283347, 0.98692566, -5.08579016, 9.40943813, -3.05470538, -14.40318203, -3.77767205, 14.32134151, -0.89151824, -2.96205926, 83.01102448, 0.74875253, -0.01130304, 0.02450919, -0.66229993, 0.02892625, 0.00034254, -0.00971319, 101.81400299, -40.62634277, 26.25000000, 0.00000000
1, 4.4400, 222, -0.09250990, -0.07300093, 0.99260134, -3.77819538, 6.00544596, -4.51902008, -14.37417889, -3.69248891, 14.80655289, -0.96806729, -3.07506633, 83.10717773, 0.74819010, -0.01147785, 0.02568010, -0.66288793, 0.03866244, -0.00810415, -0.00338892, 101.81400299, -40.62634277, 26.25000000, 0.00000000
1, 4.4600, 223, -0.09918570, -0.08814753, 0.99054772, -1.26308239, 5.48546362, -3.40927029, -13.38795471, -4.57271814, 14.74590015, -0.98796064, -3.14645314, 83.17962646, 0.74776369, -0.01177774, 0.02625364, -0.66334116, 0.04353467, -0.02244797, -0.00458022, 101.81400299, -40.62634277, 26.25000000, 0.00000000
1, 4.4800, 224, -0.10359266, -0.08735589, 0.99993688, -1.63345516, 5.83803320, 0.99410021, -14.75126266, -3.29496479, 15.04915714, -1.02330410, -3.26548052, 83.16775513, 0.74782044, -0.01223367, 0.02723586, -0.66322935, 0.04652958, -0.02090628, 0.00484666, 101.81400299, -40.62634277, 26.25000000, 0.00000000
1, 4.5000, 225, -0.09650906, -0.07458612, 0.99659592, -2.94681811, 6.43555737, 0.58444870, -14.63523674, -4.54432392, 14.50329971, -1.08425415, -3.39080167, 83.16860199, 0.74780506, -0.01256186, 0.02840597, -0.66319144, 0.03725500, -0.00743166, 0.00101853, 101.81400299, -40.62634277, 26.25000000, 0.00000000
1, 4.5200, 226, -0.09841118, -0.07599857, 0.98773390, -4.60757017, 7.57535934, -1.63917184, -14.37417889, -3.74927759, 14.65492821, -1.17637038, -3.51685119, 83.21439362, 0.74753255, -0.01270259, 0.02975613, -0.66343677, 0.03730354, -0.00807895, -0.00762868, 101.81400299, -40.62634277, 26.25000000, 0.00000000
1, 4.5400, 227, -0.10096082, -0.09534279, 0.96882069, -9.41643524, 8.67849922, -7.72524643, -14.92530346, -3.91964483, 14.26068783, -1.37107265, -3.67392683, 83.38618469, 0.74653643, -0.01239033, 0.03188880, -0.66446435, 0.03700212, -0.02564300, -0.02533732, 101.81400299, -40.62634277, 26.25000000, 0.00000000
1, 4.5600, 228, -0.10949476, -0.05600311, 0.99856836, -1.17698109, 9.12929630, -6.05815220, -15.30238724, -3.97643352, 14.16971302, -1.38412631, -3.82798719, 83.50081635, 0.74585080, -0.01323235, 0.03295421, -0.66516572, 0.04289175, 0.01730162, 0.00268000, 101.81400299, -40.62634277, 26.25000000, 0.00000000
1, 4.5800, 229, -0.12147341, -0.07746390, 1.01748443, 16.36614227, -9.87739468, 1.34033012, -15.04132843, -3.97643352, 14.04841518, -1.06216431, -3.66405869, 83.45477295, 0.74610406, -0.01436346, 0.03002462, -0.66499704, 0.05496066, -0.00607007, 0.02256496, 101.81400299, -40.62634277, 26.25000000, 0.00000000
1, 4.6000, 230, -0.10426624, -0.07377925, 0.98934650, 6.80858135, 4.52029562, 4.62895298, -14.43218899, -4.71469116, 13.92710876, -0.92398471, -3.75519180, 83.36674500, 0.74658185, -0.01576942, 0.02982791, -0.66443753, 0.03829553, -0.00820905, -0.00586035, 101.81400299, -40.62634277, 26.25000000, 0.00000000
1, 4.6200, 231, -0.10305092, -0.08138706, 0.97581255, 2.25506997, 3.04940510, 4.24986458, -14.98331356, -4.17519522, 14.23036575, -0.87030280, -3.78343296, 83.29644775, 0.74697703, -0.01626478, 0.02971053, -0.66398656, 0.03629106, -0.01812864, -0.01898216, 101.81400299, -40.62634277, 26.25000000, 0.00000000
1, 4.6400, 232, -0.11008609, -0.08095092, 0.98554385, 2.18069124, 2.51105237, 0.64732599, -14.98331356, -3.97643352, 14.41231632, -0.82726711, -3.82868385, 83.29058838, 0.74699694, -0.01680613, 0.02975687, -0.66394860, 0.04246810, -0.01784965, -0.00922936, 101.81400299, -40.62634277, 26.25000000, 0.00000000
1, 4.6600, 233, -0.11654359, -0.11423203, 0.98079377, -1.28563142, 0.15107583, -8.39332867, -14.51920795, -3.94803905, 14.20004368, -0.86756378, -3.79494834, 83.47308350, 0.74595028, -0.01639527, 0.02974446, -0.66513509, 0.04872457, -0.05153493, -0.01232853, 101.81400299, -40.62634277, 26.25000000, 0.00000000
1, 4.6800, 234, -0.11154535, -0.04810973, 1.00340295, -0.11454920, -0.30902770, -12.58513355, -14.69324780, -4.77148104, 14.07873726, -0.88073117, -3.78066039, 83.70281219, 0.74461967, -0.01628613, 0.02969533, -0.66662925, 0.04451262, 0.01642992, 0.00697338, 101.81400299, -40.62634277, 26.25000000, 0.00000000
1, 4.7000, 235, -0.11123366, -0.05474801, 0.99833804, 4.62423277, 3.23395061, 3.02480507, -15.07033253, -4.40235090, 14.10906029, -0.77949190, -3.85077238, 83.63929749, 0.74496198, -0.01733568, 0.02957137, -0.66622573, 0.04360303, 0.00874521, 0.00226671, 101.81400299, -40.62634277, 26.25000000, 0.00000000
1, 4.7200, 236, -0.11568815, -0.08394375, 0.99186021, 6.51532793, 4.81439734, 6.86735582, -14.95430660, -3.74927759, 14.68525124, -0.63994592, -3.93278027, 83.51249695, 0.74566168, -0.01868744, 0.02931367, -0.66541737, 0.04673963, -0.02307865, -0.00271318, 101.81400299, -40.62634277, 26.25000000, 0.00000000
1, 4.7400, 237, -0.10655122, -0.07885947, 0.97383183, 3.03537488, 3.83729386, 3.45211983, -15.09933949, -4.03322220, 13.80580330, -0.57741582, -4.01364613, 83.44774628, 0.74601132, -0.01954744, 0.02948764, -0.66499287, 0.03617072, -0.02064324, -0.02089940, 101.81400299, -40.62634277, 26.25000000, 0.00000000
1, 4.7600, 238, -0.10688319, -0.06925063, 0.96895725, 1.37067413, 2.84723616, 2.84551859, -14.63523674, -4.17519522, 14.68525124, -0.53465408, -4.03130007, 83.39260864, 0.74632031, -0.01991419, 0.02936396, -0.66464072, 0.03526213, -0.01206477, -0.02615816, 101.81400299, -40.62634277, 26.25000000, 0.00000000
1, 4.7800, 239, -0.10495847, -0.04367668, 0.98801965, -2.05244803, 4.37873030, 2.82640600, -14.66424084, -4.71469116, 14.23036575, -0.55879760, -4.12151194, 83.33593750, 0.74663472, -0.02026548, 0.03010137, -0.66424382, 0.03275209, 0.01440336, -0.00833105, 101.81400299, -40.62634277, 26.25000000, 0.00000000
1, 4.8000, 240, -0.10339008, -0.03053979, 1.00351477, 7.99908257, 3.70192051, 6.85430098, -15.53443813, -3.97643352, 13.62385178, -0.39097556, -4.20635605, 83.20356750, 0.74735266, -0.02181660, 0.02970643, -0.66340458, 0.02969231, 0.02689899, 0.00659524, 101.81400299, -40.62634277, 26.25000000, 0.00000000
1, 4.8200, 241, -0.10600512, -0.04712804, 0.99847609, 7.89403343, 5.42206621, 6.63762283, -15.12834644, -4.99863672, 14.50329971, -0.21642818, -4.30147934, 83.07160950, 0.74806005, -0.02347198, 0.02934320, -0.66256642, 0.03085319, 0.00712039, 0.00246366, 101.81400299, -40.62634277, 26.25000000, 0.00000000
1, 4.8400, 242, -0.13541035, -0.09850457, 1.00585914, -1.86038244, 13.80600929, 5.66683388, -14.72225571, -4.00482798, 13.95743179, -0.26908818, -4.58328533, 82.98666382, 0.74849415, -0.02473448, 0.03150531, -0.66193068, 0.05699862, -0.04563208, 0.01262211, 101.81400299, -40.62634277, 26.25000000, 0.00000000
1, 4.8600, 243, -0.12990303, -0.10134666, 0.96693116, -14.86648560, 9.45313740, -2.47607780, -15.04132843, -4.00482798, 14.20004368, -0.57141364, -4.73481226, 83.05097198, 0.74814939, -0.02365441, 0.03422775, -0.66222465, 0.04712740, -0.04681159, -0.02575569, 101.81400299, -40.62634277, 26.25000000, 0.00000000
1, 4.8800, 244, -0.12705447, -0.06952991, 0.98254496, -15.02978325, 0.33484986, -6.44275284, -15.56344604, -3.80606627, 14.65492821, -0.89036977, -4.72708654, 83.17955017, 0.74747062, -0.02156765, 0.03599627, -0.66296816, 0.04337579, -0.00884482, -0.01159315, 101.81400299, -40.62634277, 26.25000000, 0.00000000
1, 4.9000, 245, -0.14187579, -0.08393259, 1.00485134, -19.32659912, 0.80843514, -7.25147963, -15.41841316, -3.80606627, 13.98776150, -1.28910637, -4.73641253, 83.32127380, 0.74671888, -0.01906803, 0.03834017, -0.66376007, 0.05843751, -0.01580561, 0.01148599, 101.81400299, -40.62634277, 26.25000000, 0.00000000
1, 4.9200, 246, -0.14027008, -0.08263240, 1.00874889, -19.62816048, 4.20736122, -3.26395798, -15.12834644, -5.22579288, 14.89752865, -1.67053699, -4.80142450, 83.38106537, 0.74641973, -0.01698078, 0.04096371, -0.66399646, 0.05613610, -0.00730381, 0.01552851, 101.81400299, -40.62634277, 26.25000000, 0.00000000
1, 4.9400, 247, -0.12833485, -0.10363190, 0.97880328, -4.63737726, 3.39491868, 1.80701792, -15.73748589, -3.83446074, 13.92710876, -1.74371743, -4.86589432, 83.35011292, 0.74659771, -0.01686689, 0.04181176, -0.66374636, 0.04283363, -0.02541917, -0.01312991, 101.81400299, -40.62634277, 26.25000000, 0.00000000
1, 4.9600, 248, -0.13783762, -0.10944594, 0.98090297, 3.21785736, 0.65545994, 1.31032348, -15.82450485, -3.89125037, 14.71557713, -1.68699455, -4.83660698, 83.31602478, 0.74679220, -0.01705429, 0.04129767, -0.66355479, 0.05177840, -0.03160247, -0.01070496, 101.81400299, -40.62634277, 26.25000000, 0.00000000
1, 4.9800, 249, -0.14304358, -0.10873491, 0.97634602, -2.60491014, 2.10149980, 1.99585104, -15.33139420, -4.06161785, 14.26068783, -1.74199510, -4.88243341, 83.27864838, 0.74700814, -0.01694791, 0.04192000, -0.66327554, 0.05723500, -0.03127348, -0.01531097, 101.81400299, -40.62634277, 26.25000000, 0.00000000
1, 5.0000, 250, -0.13627058, -0.08049484, 0.98894739, -1.56804371, 2.00730991, 4.84166002, -15.41841316, -4.54432392, 15.07948303, -1.76043677, -4.93171644, 83.18219757, 0.74755949, -0.01707772, 0.04236202, -0.66262263, 0.04961679, -0.00140531, -0.00401043, 101.81400299, -40.62634277, 26.25000000, 0.00000000
1, 5.0200, 251, -0.13419776, -0.06312307, 1.02730095, -0.28552973, 4.85268974, 5.98530912, -15.44742012, -4.37395668, 14.50329971, -1.73525953, -5.00551033, 83.06390381, 0.74822485, -0.01762522, 0.04271548, -0.66183406, 0.04662916, 0.01756532, 0.03351302, 101.81400299, -40.62634277, 26.25000000, 0.00000000
1, 5.0400, 252, -0.13924488, -0.09684541, 1.00844514, 2.65972090, 8.48915291, 5.61482382, -15.33139420, -4.28877354, 14.04841518, -1.67723596, -5.18629265, 82.96803284, 0.74873215, -0.01901327, 0.04357529, -0.66116565, 0.04935163, -0.01781960, 0.01651737, 101.81400299, -40.62634277, 26.25000000, 0.00000000
1, 5.0600, 253, -0.14540027, -0.11835115, 0.97393101, 0.01403447, 8.92757797, 4.56267500, -15.73748589, -5.02703142, 14.77622700, -1.67384720, -5.33663416, 82.89411926, 0.74912536, -0.01987541, 0.04454970, -0.66062969, 0.05224575, -0.04154379, -0.01661383, 101.81400299, -40.62634277, 26.25000000, 0.00000000
1, 5.0800, 254, -0.14055695, -0.09060115, 0.98592997, -9.98029137, 7.57498932, 1.41202712, -15.62145710, -4.23198462, 13.80580330, -1.89950311, -5.48993397, 82.88402557, 0.74918854, -0.01928125, 0.04685306, -0.66041625, 0.04510788, -0.01200043, -0.00574046, 101.81400299, -40.62634277, 26.25000000, 0.00000000
1, 5.1000, 255, -0.14677636, -0.10540470, 0.97343171, -18.47235489, 6.50344324, -0.93432814, -15.91152287, -4.23198462, 15.10980988, -2.25810456, -5.61723948, 82.91223145, 0.74905688, -0.01768399, 0.04974613, -0.66039878, 0.04884318, -0.02124332, -0.01704594, 101.81400299, -40.62634277, 26.25000000, 0.00000000
1, 5.1200, 256, -0.15272701, -0.10033261, 1.00670886, -9.91914177, 7.15799475, -0.41233271, -15.65046406, -6.87267542, 14.38199425, -2.44847417, -5.73587894, 82.92961884, 0.74896115, -0.01713265, 0.05161465, -0.66037840, 0.05278235, -0.01006050, 0.01631798, 101.81400299, -40.62634277, 26.25000000, 0.00000000
1, 5.1400, 257, -0.14131583, -0.09591723, 0.99213403, -8.19531155, 8.73604107, 1.51918280, -15.99854469, -4.28877354, 14.62459850, -2.61352015, -5.91428280, 82.91329193, 0.74904329, -0.01707690, 0.05373183, -0.66011769, 0.03872572, -0.00341605, 0.00192580, 101.81400299, -40.62634277, 26.25000000, 0.00000000
1, 5.1600, 258, -0.13679262, -0.10102902, 0.96741736, -7.94466639, 9.48613358, 2.24408293, -16.05655479, -4.09001207, 14.74590015, -2.75062418, -6.07526112, 82.88113403, 0.74921566, -0.01709493, 0.05557632, -0.65976888, 0.03098577, -0.00676729, -0.02204467, 101.81400299, -40.62634277, 26.25000000, 0.00000000
1, 5.1800, 259, -0.14438322, -0.09946275, 0.96872264, 2.69875145, 7.48466015, 3.85294676, -16.34662247, -4.23198462, 14.38199425, -2.68587804, -6.23096275, 82.82047272, 0.74952143, -0.01838749, 0.05622897, -0.65933138, 0.03603542, -0.00462023, -0.02051368, 101.81400299, -40.62634277, 26.25000000, 0.00000000
1, 5.2000, 260, -0.15457344, -0.10455114, 0.97553152, 2.60820317, 7.79191494, 1.87576258, -16.02754784, -4.20358944, 14.68525124, -2.63370252, -6.39074278, 82.79927826, 0.74959856, -0.01964019, 0.05697512, -0.65914351, 0.04356965, -0.01069779, -0.01322554, 101.81400299, -40.62634277, 26.25000000, 0.00000000
1, 5.2200, 261, -0.16158514, -0.08676644, 1.00259268, -4.53251362, 9.60655403, 1.24893606, -16.25960350, -4.09001207, 14.65492821, -2.72652912, -6.55617428, 82.78881836, 0.74963593, -0.01998198, 0.05859047, -0.65894914, 0.04778244, 0.00834956, 0.01325019, 101.81400299, -40.62634277, 26.25000000, 0.00000000
1, 5.2400, 262, -0.15784220, -0.09838589, 0.98759443, -13.79662228, 11.95689964, 0.64752567, -16.52066231, -4.43074656, 14.53362274, -3.00434089, -6.79638767, 82.79812622, 0.74957329, -0.01955525, 0.06175347, -0.65874422, 0.04051024, -0.00041988, -0.00058439, 101.81400299, -40.62634277, 26.25000000, 0.00000000
1, 5.2600, 263, -0.15754782, -0.10633669, 0.96019816, -11.00441456, 12.47601700, 2.39597011, -16.34662247, -3.86285591, 14.86720562, -3.20362401, -7.02311420, 82.76859283, 0.74972308, -0.01954309, 0.06438271, -0.65832239, 0.03589132, -0.00516745, -0.02680287, 101.81400299, -40.62634277, 26.25000000, 0.00000000
1, 5.2800, 264, -0.15926278, -0.09383228, 0.96308291, -4.07589865, 10.50890923, 3.74251390, -16.31761360, -3.83446074, 14.95818138, -3.27478433, -7.23997593, 82.71790314, 0.74997354, -0.02029895, 0.06621485, -0.65783232, 0.03398920, 0.00956714, -0.02396809, 101.81400299, -40.62634277, 26.25000000, 0.00000000
1, 5.3000, 265, -0.17615387, -0.10875864, 0.97942162, -1.71656168, 13.59932041, 1.96738744, -15.91152287, -4.91345263, 13.98776150, -3.30642986, -7.50617027, 82.70607758, 0.74997908, -0.02161920, 0.06813516, -0.65758777, 0.04657899, -0.00374960, -0.00630824, 101.81400299, -40.62634277, 26.25000000, 0.00000000
1, 5.3200, 266, -0.17660427, -0.11946768, 0.96406382, -2.65104055, 9.88336372, 0.21357174, -16.72370529, -4.99863672, 14.29101849, -3.35444164, -7.66772747, 82.72320557, 0.74984705, -0.02224644, 0.06946108, -0.65757871, 0.04354336, -0.01465814, -0.02063219, 101.81400299, -40.62634277, 26.25000000, 0.00000000
1, 5.3400, 267, -0.18707973, -0.12180095, 0.97642952, -3.31662226, 8.89814949, 0.79239631, -16.52066231, -4.91345263, 14.41231632, -3.42997050, -7.84834576, 82.72978973, 0.74977487, -0.02279739, 0.07107085, -0.65747011, 0.05097139, -0.01548887, -0.00769346, 101.81400299, -40.62634277, 26.25000000, 0.00000000
1, 5.3600, 268, -0.18777840, -0.12581183, 0.97490948, -9.68008423, 9.60975552, -0.73904628, -16.46264648, -4.77148104, 14.32134151, -3.63499498, -8.01465988, 82.76599121, 0.74956179, -0.02243779, 0.07332398, -0.65747803, 0.04845053, -0.01715905, -0.00842407, 101.81400299, -40.62634277, 26.25000000, 0.00000000
1, 5.3800, 269, -0.18467075, -0.13649082, 0.94838983, -17.43186569, 11.52492714, -4.50499725, -16.72370529, -4.43074656, 14.56394482, -3.99948955, -8.22888279, 82.88171387, 0.74890918, -0.02136650, 0.07678862, -0.65786177, 0.04227611, -0.02412897, -0.03363429, 101.81400299, -40.62634277, 26.25000000, 0.00000000
1, 5.4000, 270, -0.18884474, -0.12463068, 0.96576715, -11.90161800, 8.92001152, -3.02896309, -16.98476410, -4.23198462, 14.65492821, -4.23852110, -8.39671898, 82.96251678, 0.74844444, -0.02082926, 0.07923777, -0.65811741, 0.04312160, -0.00585404, -0.01598704, 101.81400299, -40.62634277, 26.25000000, 0.00000000
1, 5.4200, 271, -0.20672959, -0.14140184, 0.99899608, -7.63241243, 7.38110733, -1.27754295, -16.69470215, -4.62950802, 13.68450451, -4.40592241, -8.51221275, 83.00295258, 0.74821180, -0.02043186, 0.08094246, -0.65818685, 0.05864639, -0.01817873, 0.01859178, 101.81400299, -40.62634277, 26.25000000, 0.00000000
1, 5.4400, 272, -0.20177546, -0.14699526, 0.97712177, -14.46733856, 9.62819481, -1.17506301, -15.76648998, -4.82826948, 14.47297001, -4.69999456, -8.69999027, 83.04925537, 0.74794835, -0.01963121, 0.08384278, -0.65814769, 0.05106466, -0.02051962, -0.00225460, 101.81400299, -40.62634277, 26.25000000, 0.00000000
1, 5.4600, 273, -0.19029978, -0.14224313, 0.94478035, -11.40428352, 7.06628799, -1.04953277, -16.60767937, -4.68629694, 14.35167217, -4.92491102, -8.80191803, 83.08701324, 0.74774313, -0.01878099, 0.08578967, -0.65815479, 0.03668707, -0.01279459, -0.03397859, 101.81400299, -40.62634277, 26.25000000, 0.00000000
1, 5.4800, 274, -0.20175020, -0.14772394, 0.95203716, -8.75516891, 3.90115356, -1.95703065, -16.69470215, -4.85666418, 14.23036575, -5.10116768, -8.87045383, 83.13391876, 0.74748492, -0.01806316, 0.08723902, -0.65827769, 0.04698527, -0.01455097, -0.02598242, 101.81400299, -40.62634277, 26.25000000, 0.00000000
1, 5.5000, 275, -0.22067754, -0.15119821, 1.00133717, -8.11053467, 2.55722117, -1.07647431, -16.60767937, -4.94184732, 13.62385178, -5.27986479, -8.92079544, 83.16480255, 0.74732268, -0.01721284, 0.08858712, -0.65830457, 0.06495048, -0.01295527, 0.02382850, 101.81400299, -40.62634277, 26.25000000, 0.00000000
1, 5.5200, 276, -0.21488543, -0.15928937, 0.98771435, -14.90909195, 6.04891348, -2.39432311, -16.34662247, -4.79987526, 13.83613300, -5.58357525, -9.01560593, 83.22661591, 0.74698895, -0.01583031, 0.09093720, -0.65839761, 0.05799521, -0.01732160, 0.01120426, 101.81400299, -40.62634277, 26.25000000, 0.00000000
1, 5.5400, 277, -0.19663088, -0.15222678, 0.94929373, -12.74091148, 6.46922636, -1.51386762, -16.46264648, -4.20358944, 13.65417480, -5.83884716, -9.13538933, 83.27430725, 0.74672186, -0.01489928, 0.09317272, -0.65840971, 0.03772435, -0.00720874, -0.02672607, 101.81400299, -40.62634277, 26.25000000, 0.00000000
1, 5.5600, 278, -0.21272965, -0.17086019, 0.96450233, -9.82273293, 3.47724295, -1.71338713, -16.60767937, -4.54432392, 14.07873726, -6.05059004, -9.17140484, 83.31727600, 0.74649358, -0.01376379, 0.09461696, -0.65848744, 0.05224859, -0.02143857, -0.00998418, 101.81400299, -40.62634277, 26.25000000, 0.00000000
1, 5.5800, 279, -0.21483630, -0.17559060, 0.96634406, -17.53469849, 3.92008209, -4.88350725, -16.69470215, -4.99863672, 13.71482754, -6.42205286, -9.23469925, 83.42874146, 0.74588120, -0.01180560, 0.09714863, -0.65885061, 0.05383551, -0.02102552, -0.00728805, 101.81400299, -40.62634277, 26.25000000, 0.00000000
1, 5.6000, 280, -0.20353173, -0.15620650, 0.96003449, -15.52632332, 5.06455946, -4.95876646, -16.52066231, -5.42455435, 13.80580330, -6.73656559, -9.32232285, 83.54207611, 0.74524289, -0.01036580, 0.09951191, -0.65924436, 0.04126344, 0.00434626, -0.01363187, 101.81400299, -40.62634277, 26.25000000, 0.00000000
1, 5.6200, 281, -0.21480954, -0.16994676, 0.96706313, -6.57319021, 4.37150908, -2.82917762, -16.66569519, -5.16900396, 13.01733780, -6.86642504, -9.35413361, 83.60861206, 0.74486548, -0.00976459, 0.10045834, -0.65953642, 0.05123767, -0.00553243, -0.00530261, 101.81400299, -40.62634277, 26.25000000, 0.00000000
1, 5.6400, 282, -0.21947157, -0.19376282, 0.95918626, -7.13414049, 1.67608988, -1.92416143, -16.60767937, -5.76528883, 13.74515820, -7.02358150, -9.38041401, 83.65238190, 0.74462169, -0.00893474, 0.10152867, -0.65965956, 0.05562956, -0.02746732, -0.01168443, 101.81400299, -40.62634277, 26.25000000, 0.00000000
1, 5.6600, 283, -0.21541080, -0.19698229, 0.94434863, -13.44796467, 0.39804959, -3.82553220, -16.95576096, -5.50973845, 13.44190121, -7.30603743, -9.34831333, 83.73198700, 0.74418831, -0.00698392, 0.10294286, -0.65995294, 0.05135193, -0.02765873, -0.02584854, 101.81400299, -40.62634277, 26.25000000, 0.00000000
1, 5.6800, 284, -0.20904073, -0.18183388, 0.94404298, -12.55624771, -0.79281682, -5.46944380, -17.18781281, -6.36157370, 13.19929695, -7.56594133, -9.31155014, 83.83562469, 0.74361056, -0.00517604, 0.10419832, -0.66042364, 0.04579053, -0.00754985, -0.02639615, 101.81400299, -40.62634277, 26.25000000, 0.00000000
1, 5.7000, 285, -0.22283916, -0.18661593, 0.97919494, -5.23596334, -0.71401244, -2.47786140, -17.04277992, -5.87886715, 14.01808453, -7.67366743, -9.29247952, 83.87815094, 0.74337256, -0.00440461, 0.10469497, -0.66061860, 0.06019102, -0.00745704, 0.00927335, 101.81400299, -40.62634277, 26.25000000, 0.00000000
1, 5.7200, 286, -0.23377419, -0.19720386, 0.99643427, -9.16686630, 1.98417985, -0.42348891, -16.81072807, -5.14060974, 14.04841518, -7.86734152, -9.29542923, 83.88880920, 0.74331713, -0.00317526, 0.10582999, -0.66050708, 0.07130013, -0.01531161, 0.02724386, 101.81400299, -40.62634277, 26.25000000, 0.00000000
1, 5.7400, 287, -0.21894932, -0.20772086, 0.95532066, -17.99593353, 5.57499075, 0.06691419, -17.50688553, -5.50973845, 13.53287697, -8.22522831, -9.40657520, 83.90793610, 0.74320096, -0.00152059, 0.10860547, -0.66019315, 0.05544579, -0.02255269, -0.01241261, 101.81400299, -40.62634277, 26.25000000, 0.00000000
1, 5.7600, 288, -0.20434894, -0.21010773, 0.92540711, -12.56813526, 4.72016764, 0.11815222, -17.18781281, -5.56652737, 13.44190121, -8.46971130, -9.46112919, 83.91963196, 0.74312949, -0.00026470, 0.11036368, -0.65998363, 0.03898511, -0.02119034, -0.04112288, 101.81400299, -40.62634277, 26.25000000, 0.00000000
1, 5.7800, 289, -0.21087508, -0.20897496, 0.94112402, -8.45219994, 5.82633066, -0.54429126, -16.95576096, -8.40597916, 13.44190121, -8.64011669, -9.57598209, 83.95264435, 0.74292767, 0.00013752, 0.11208147, -0.65992141, 0.04452773, -0.01593193, -0.02481037, 101.81400299, -40.62634277, 26.25000000, 0.00000000
1, 5.8000, 290, -0.22709988, -0.20032568, 0.97658563, -2.07527089, 6.91621399, 1.48629797, -16.89774704, -6.33317947, 14.13938999, -8.67461014, -9.71855927, 83.95017242, 0.74292696, -0.00046913, 0.11319389, -0.65973216, 0.05843886, -0.00370429, 0.01087318, 101.81400299, -40.62634277, 26.25000000, 0.00000000
1, 5.8200, 291, -0.23403877, -0.20447315, 0.98631066, 0.60876673, 8.05078125, 2.49137855, -17.10079384, -6.36157370, 13.13864422, -8.63987732, -9.84745216, 83.92604065, 0.74305105, -0.00142313, 0.11382020, -0.65948325, 0.06312133, -0.00757630, 0.02115453, 101.81400299, -40.62634277, 26.25000000, 0.00000000
1, 5.8400, 292, -0.22174022, -0.19067159, 0.97509003, 4.01172400, 9.02680969, 4.32149363, -17.41986275, -5.76528883, 13.59352970, -8.54764652, -10.04080486, 83.87533569, 0.74331665, -0.00309947, 0.11452993, -0.65905517, 0.04793393, 0.00450249, 0.00959346, 101.81400299, -40.62634277, 26.25000000, 0.00000000
1, 5.8600, 293, -0.21246478, -0.20092811, 0.94760364, 3.34640932, 9.22601414, 2.07000303, -17.73893738, -6.47515202, 12.95668507, -8.48402977, -10.18706036, 83.87757111, 0.74328136, -0.00436790, 0.11510151, -0.65898818, 0.03543774, -0.00880826, -0.01704605, 101.81400299, -40.62634277, 26.25000000, 0.00000000
1, 5.8800, 294, -0.19388987, -0.19353472, 0.90003121, -16.29454231, 5.96915913, -14.61149979, -17.70992851, -6.04923344, 12.92636299, -8.87988091, -10.24344158, 84.19528198, 0.74145627, -0.00245574, 0.11773209, -0.66058749, 0.01514895, -0.00186276, -0.06433702, 101.81400299, -40.62634277, 26.25000000, 0.00000000
1, 5.9000, 295, -0.23736204, -0.22024909, 0.95257199, -6.60641003, 5.13746500, -6.06491566, -16.89774704, -5.87886715, 13.38124847, -9.02554035, -10.32767677, 84.33216095, 0.74065930, -0.00214868, 0.11910727, -0.66123575, 0.05800218, -0.01978462, -0.00944519, 101.81400299, -40.62634277, 26.25000000, 0.00000000
1, 5.9200, 296, -0.25229925, -0.21332994, 0.98397619, -0.95365453, 9.82908440, -2.22230363, -17.27482986, -6.98625374, 12.92636299, -9.04370594, -10.48452473, 84.40930939, 0.74019486, -0.00303165, 0.12021072, -0.66155261, 0.07077614, -0.01040503, 0.02214082, 101.81400299, -40.62634277, 26.25000000, 0.00000000
1, 5.9400, 297, -0.25381643, -0.20721686, 0.98466468, -1.90708065, 14.32302189, 1.15088272, -17.01377106, -7.12822580, 13.01733780, -9.07429409, -10.77215099, 84.43785858, 0.73999202, -0.00455182, 0.12221932, -0.66140276, 0.06830640, -0.00388092, 0.02334209, 101.81400299, -40.62634277, 26.25000000, 0.00000000
1, 5.9600, 298, -0.24718949, -0.19748086, 0.99554306, 9.14515591, 15.87042999, 5.17762613, -17.33284569, -6.44675779, 13.19929695, -8.87201977, -11.09050846, 84.40288544, 0.74013299, -0.00768838, 0.12308222, -0.66105586, 0.05635560, 0.00484593, 0.03450571, 101.81400299, -40.62634277, 26.25000000, 0.00000000
1, 5.9800, 299, -0.25007895, -0.23147199, 0.94441158, 8.82877254, 17.09986687, 3.22632813, -17.24582672, -5.56652737, 12.50180817, -8.71038055, -11.43659973, 84.41697693, 0.73997456, -0.01077754, 0.12435331, -0.66095221, 0.05361691, -0.03546053, -0.01437311, 101.81400299, -40.62634277, 26.25000000, 0.00000000
1, 6.0000, 300, -0.23743650, -0.21590143, 0.91049778, -2.41601515, 16.31609154, -5.07490110, -17.21681976, -5.62331629, 13.04766846, -8.81718540, -11.72700500, 84.58897400, 0.73893338, -0.01198163, 0.12680027, -0.66163105, 0.03541463, -0.02244831, -0.04801265, 101.81400299, -40.62634277, 26.25000000, 0.00000000
1, 6.0200, 301, -0.24389602, -0.20242001, 0.92149806, -7.90031767, 13.10959625, -3.82533336, -17.79695129, -6.38996792, 13.19929695, -8.97731876, -11.94790649, 84.71081543, 0.73820037, -0.01238418, 0.12911515, -0.66199416, 0.03783412, -0.00531561, -0.03634674, 101.81400299, -40.62634277, 26.25000000, 0.00000000
1, 6.0400, 302, -0.25750995, -0.18880291, 0.94853377, 8.37921906, 15.76969433, 0.35605526, -17.91297722, -6.02083921, 13.38124847, -8.79555607, -12.26167774, 84.76140594, 0.73781544, -0.01545796, 0.13004947, -0.66217566, 0.04680885, 0.00951918, -0.00901814, 101.81400299, -40.62634277, 26.25000000, 0.00000000
1, 6.0600, 303, -0.25993904, -0.17512296, 0.97518003, 32.04700470, 19.93269539, 8.63456535, -18.20304298, -6.53194094, 13.10831356, -8.09729576, -12.68738937, 84.66176605, 0.73816162, -0.02234571, 0.12873359, -0.66185021, 0.04301763, 0.01716319, 0.01717635, 101.81400299, -40.62634277, 26.25000000, 0.00000000
1, 6.0800, 304, -0.25913107, -0.17659417, 0.94232827, 48.73837662, 24.73872566, 9.92487812, -17.99999619, -5.25418711, 13.32059479, -7.11346626, -13.19948196, 84.57018280, 0.73828566, -0.03158889, 0.12632713, -0.66179907, 0.03390479, -0.00148808, -0.01586236, 101.81400299, -40.62634277, 26.25000000, 0.00000000
1, 6.1000, 305, -0.26663077, -0.17009677, 0.89882362, 28.41231537, 16.89373589, -6.09561348, -17.82595444, -7.66772175, 13.32059479, -6.63109589, -13.49579525, 84.76230621, 0.73691314, -0.03664462, 0.12536409, -0.66324967, 0.03431638, -0.01071926, -0.05966790, 101.81400299, -40.62634277, 26.25000000, 0.00000000
1, 6.1200, 306, -0.27405688, -0.18150568, 0.87301755, 1.25852096, 6.34937716, -12.79387093, -17.94198418, -5.42455435, 13.29027271, -6.68681526, -13.54568195, 85.04409790, 0.73527712, -0.03688914, 0.12591302, -0.66494560, 0.03904912, -0.02643720, -0.08458454, 101.81400299, -40.62634277, 26.25000000, 0.00000000
1, 6.1400, 307, -0.28626862, -0.17779355, 0.90497750, -11.66428757, 2.11669636, -10.42401695, -18.17403603, -5.93565607, 13.41157055, -6.97976589, -13.54842186, 85.25780487, 0.73412722, -0.03526341, 0.12756434, -0.66598886, 0.05088459, -0.01793425, -0.05236616, 101.81400299, -40.62634277, 26.25000000, 0.00000000
1, 6.1600, 308, -0.29846156, -0.18652157, 0.95173568, -13.16017723, 1.05922508, -5.29616690, -18.52211189, -5.79368305, 13.29027271, -7.23836470, -13.51049900, 85.35072327, 0.73367941, -0.03348714, 0.12880020, -0.66633606, 0.06317972, -0.01896091, -0.00459981, 101.81400299, -40.62634277, 26.25000000, 0.00000000
1, 6.1800, 309, -0.29093453, -0.17917575, 0.96843815, 3.65657043, 5.13037062, 2.67001176, -18.58012772, -5.76528883, 13.13864422, -7.13670969, -13.62914944, 85.31312561, 0.73382157, -0.03479685, 0.12896974, -0.66607946, 0.05543482, -0.00936757, 0.01194431, 101.81400299, -40.62634277, 26.25000000, 0.00000000
1, 6.2000, 310, -0.28056958, -0.17793238, 0.94298774, 11.01427269, 10.21573162, 2.54083657, -17.99999619, -5.56652737, 13.04766846, -6.91562986, -13.84502316, 85.29819489, 0.73375088, -0.03747074, 0.12905310, -0.66599613, 0.04213686, -0.01288507, -0.01326219, 101.81400299, -40.62634277, 26.25000000, 0.00000000
1, 6.2200, 311, -0.28367385, -0.19154045, 0.91315639, 4.81317234, 11.94494247, -0.91887856, -17.91297722, -5.68010473, 12.92636299, -6.85616922, -14.03496742, 85.36215973, 0.73327851, -0.03904556, 0.12988558, -0.66626406, 0.04156142, -0.03080098, -0.04181677, 101.81400299, -40.62634277, 26.25000000, 0.00000000
1, 6.2400, 312, -0.30037293, -0.18083991, 0.93331909, -4.77935505, 3.77125788, -4.28039503, -18.46410179, -5.73689461, 12.59278297, -6.97321129, -14.09015942, 85.46131134, 0.73271793, -0.03873593, 0.13088089, -0.66670400, 0.05616022, -0.01816129, -0.02154378, 101.81400299, -40.62634277, 26.25000000, 0.00000000
1, 6.2600, 313, -0.31190655, -0.17012033, 0.98382241, 0.16401207, 3.86453533, -2.14624691, -18.55112076, -5.99244499, 13.10831356, -6.95791006, -14.13141060, 85.51007080, 0.73241127, -0.03913347, 0.13103534, -0.66698730, 0.06692167, -0.00376380, 0.02871789, 101.81400299, -40.62634277, 26.25000000, 0.00000000
1, 6.2800, 314, -0.30118072, -0.18171753, 0.96486515, 9.56960583, 13.33922195, -0.28847891, -18.72516060, -5.73689461, 12.95668507, -6.78127384, -14.40131664, 85.56472778, 0.73191142, -0.04192175, 0.13168843, -0.66723800, 0.05390974, -0.01833033, 0.01067654, 101.81400299, -40.62634277, 26.25000000, 0.00000000
1, 6.3000, 315, -0.29426184, -0.18080901, 0.90922916, 6.70244455, 15.57560444, 0.02421259, -18.58012772, -6.50354671, 12.98701572, -6.65756273, -14.70053101, 85.61448669, 0.73143584, -0.04453993, 0.13283342, -0.66736287, 0.04180121, -0.02290771, -0.04391581, 101.81400299, -40.62634277, 26.25000000, 0.00000000
1, 6.3200, 316, -0.29961216, -0.17049323, 0.91440600, 10.45772648, 11.92923737, 0.75407100, -19.10224533, -6.27639055, 12.62310600, -6.45174742, -14.90998745, 85.63968658, 0.73110473, -0.04712231, 0.13294291, -0.66752654, 0.04301712, -0.01520029, -0.03848587, 101.81400299, -40.62634277, 26.25000000, 0.00000000
1, 6.3400, 317, -0.32271257, -0.16722243, 0.94053018, 5.38161421, 10.48050976, -1.26215184, -18.84118652, -6.95785856, 12.62310600, -6.36949682, -15.10941505, 85.69892120, 0.73062432, -0.04889638, 0.13369355, -0.66777492, 0.06257415, -0.01346243, -0.01190394, 101.81400299, -40.62634277, 26.25000000, 0.00000000
1, 6.3600, 318, -0.32308558, -0.16986200, 0.93750787, 3.33363843, 7.56391001, 0.49668238, -19.01522636, -5.70849991, 11.77398777, -6.28042555, -15.22380543, 85.70157623, 0.73051101, -0.05014463, 0.13389276, -0.66776645, 0.06004904, -0.01711727, -0.01410281, 101.81400299, -40.62634277, 26.25000000, 0.00000000
1, 6.3800, 319, -0.31919873, -0.15239868, 0.95136577, 11.27728558, 8.03017807, 2.97173858, -19.36330223, -5.73689461, 12.04692268, -6.04461956, -15.39227676, 85.66851807, 0.73050779, -0.05260637, 0.13359325, -0.66764051, 0.05417590, -0.00201433, -0.00090948, 101.81400299, -40.62634277, 26.25000000, 0.00000000
1, 6.4000, 320, -0.32401153, -0.17359705, 0.92012471, 8.49594688, 5.25209713, 1.70400321, -19.04422951, -5.56652737, 12.07724476, -5.88098097, -15.49349689, 85.65158844, 0.73047417, -0.05422857, 0.13328461, -0.66760916, 0.05647796, -0.02851680, -0.03077140, 101.81400299, -40.62634277, 26.25000000, 0.00000000
1, 6.4200, 321, -0.31733915, -0.15831974, 0.91038501, -2.72820520, -0.83605367, -0.70529437, -18.95721054, -5.16900396, 11.98626995, -5.95192003, -15.39175987, 85.65009308, 0.73057264, -0.05317283, 0.13305840, -0.66763145, 0.04991036, -0.01478415, -0.04138862, 101.81400299, -40.62634277, 26.25000000, 0.00000000
1, 6.4400, 322, -0.32096231, -0.14026931, 0.92280984, -15.71941376, -4.36293411, -3.34797978, -19.07323647, -5.82207775, 12.10756779, -6.28721476, -15.29619503, 85.70613861, 0.73044932, -0.05053524, 0.13438550, -0.66770542, 0.05532305, 0.00757838, -0.02996420, 101.81400299, -40.62634277, 26.25000000, 0.00000000
1, 6.4600, 323, -0.32964912, -0.18598352, 0.89380115, -14.88630962, -4.74867725, -2.35660434, -19.36330223, -5.48134327, 11.95593929, -6.58769035, -15.16958714, 85.73306274, 0.73048687, -0.04790178, 0.13532883, -0.66766793, 0.06565101, -0.03367409, -0.05649567, 101.81400299, -40.62634277, 26.25000000, 0.00000000
1, 6.4800, 324, -0.34192008, -0.19637880, 0.91551495, -7.93303680, -7.45197248, 1.39442682, -19.76939392, -5.05542564, 12.28952599, -6.72696686, -15.02650642, 85.67353058, 0.73096192, -0.04609597, 0.13526507, -0.66728795, 0.08037604, -0.03925894, -0.03453336, 101.81400299, -40.62634277, 26.25000000, 0.00000000
1, 6.5000, 325, -0.33150864, -0.18081240, 0.92353660, -2.90174150, -7.41717291, 5.13062382, -19.71138382, -4.97024250, 11.98626995, -6.74402380, -14.89759159, 85.54101563, 0.73180270, -0.04506814, 0.13460594, -0.66656953, 0.07230531, -0.02189041, -0.02776156, 101.81400299, -40.62634277, 26.25000000, 0.00000000
1, 6.5200, 326, -0.31799799, -0.18030022, 0.88908088, -0.25734022, -8.40295792, 5.78086519, -19.82740974, -5.56652737, 11.16747475, -6.70515156, -14.71282482, 85.38763428, 0.73276800, -0.04404519, 0.13327540, -0.66584438, 0.06137639, -0.02333886, -0.06292911, 101.81400299, -40.62634277, 26.25000000, 0.00000000
1, 6.5400, 327, -0.31609040, -0.17380247, 0.90258634, 1.22918022, -13.23744106, 5.71531487, -19.30529213, -5.22579288, 11.62235928, -6.63762522, -14.46583462, 85.22537231, 0.73380142, -0.04283207, 0.13138580, -0.66516066, 0.06303551, -0.01700174, -0.05080137, 101.81400299, -40.62634277, 26.25000000, 0.00000000
1, 6.5600, 328, -0.33301327, -0.18583404, 0.95406759, 3.44795728, -14.35897064, 7.32703543, -18.95721054, -4.68629694, 12.01659203, -6.51077032, -14.18922424, 85.01800537, 0.73508602, -0.04177954, 0.12897700, -0.66428012, 0.08436207, -0.02786837, -0.00009189, 101.81400299, -40.62634277, 26.25000000, 0.00000000
1, 6.5800, 329, -0.33056873, -0.17773952, 0.98810863, 2.27519536, -11.21173477, 8.96594715, -19.42131805, -5.19739866, 12.44115448, -6.41611290, -14.00520802, 84.79906464, 0.73640436, -0.04106019, 0.12734136, -0.66317934, 0.08607171, -0.02017732, 0.03220585, 101.81400299, -40.62634277, 26.25000000, 0.00000000
1, 6.6000, 330, -0.30775595, -0.17502181, 0.93623435, 0.48593974, -6.47132587, 9.19013023, -19.27628517, -5.33937120, 12.41082478, -6.35773802, -13.90649986, 84.59190369, 0.73762661, -0.04062685, 0.12645066, -0.66201723, 0.06553493, -0.02110113, -0.02044644, 101.81400299, -40.62634277, 26.25000000, 0.00000000
1, 6.6200, 331, -0.30186099, -0.16215555, 0.92866462, -1.83324397, -7.77964211, 9.00455189, -18.63813782, -5.28258181, 12.56245327, -6.33919334, -13.74860668, 84.37426758, 0.73894793, -0.03958223, 0.12541486, -0.66080278, 0.06173401, -0.00931766, -0.02923928, 101.81400299, -40.62634277, 26.25000000, 0.00000000
1, 6.6400, 332, -0.30418831, -0.16541338, 0.93900001, -8.09817028, -10.48012447, 7.83005714, -18.87019348, -4.88505840, 13.16896629, -6.47608995, -13.56228447, 84.18103790, 0.74018973, -0.03739801, 0.12508045, -0.65960246, 0.06693113, -0.01129075, -0.01937708, 101.81400299, -40.62634277, 26.25000000, 0.00000000
1, 6.6600, 333, -0.30219442, -0.17472379, 0.94830108, -24.68733597, -14.31938744, 8.71422958, -18.69615364, -6.02083921, 13.19929695, -6.91602230, -13.29582691, 83.95453644, 0.74173784, -0.03274981, 0.12597719, -0.65793788, 0.06872191, -0.01487672, -0.00995040, 101.81400299, -40.62634277, 26.25000000, 0.00000000
1, 6.6800, 334, -0.30014992, -0.18152297, 0.96927214, -32.16825104, -10.75827789, 8.64857578, -18.84118652, -5.39616013, 12.47147751, -7.51818991, -13.11910915, 83.74534607, 0.74316305, -0.02758630, 0.12835479, -0.65610421, 0.07073515, -0.01193350, 0.01141401, 101.81400299, -40.62634277, 26.25000000, 0.00000000
1, 6.7000, 335, -0.28931087, -0.20529723, 0.91867042, -28.39527893, -7.55732441, 7.66124630, -18.34807587, -5.48134327, 13.22961998, -8.02530098, -12.99667263, 83.55740356, 0.74439293, -0.02337011, 0.13051271, -0.65444601, 0.06229637, -0.02792235, -0.03718293, 101.81400299, -40.62634277, 26.25000000, 0.00000000
1, 6.7200, 336, -0.28691661, -0.21947959, 0.90260696, -15.99490070, -9.95066929, 9.22684002, -18.58012772, -4.71469116, 13.07799149, -8.28762913, -12.81662083, 83.32962799, 0.74579984, -0.02035878, 0.13089854, -0.65286583, 0.06246039, -0.03653118, -0.05223989, 101.81400299, -40.62634277, 26.25000000, 0.00000000
1, 6.7400, 337, -0.29360920, -0.22254457, 0.93485272, -10.85574913, -12.65092564, 9.77221870, -18.26105309, -4.85666418, 13.04766846, -8.44158459, -12.60955143, 83.08183289, 0.74729782, -0.01787302, 0.13048629, -0.65130633, 0.07249331, -0.03451055, -0.02014197, 101.81400299, -40.62634277, 26.25000000, 0.00000000
1, 6.7600, 338, -0.28497106, -0.20623097, 0.95878333, -2.48684263, -9.81964684, 10.82339573, -18.87019348, -5.39616013, 13.74515820, -8.41290951, -12.43521214, 82.81954193, 0.74883294, -0.01675493, 0.12924117, -0.64981937, 0.06693345, -0.01559732, 0.00246388, 101.81400299, -40.62634277, 26.25000000, 0.00000000
1, 6.7800, 339, -0.27616546, -0.19173920, 0.95759809, 9.04272556, -6.27456617, 10.90044975, -18.63813782, -5.02703142, 13.53287697, -8.17376709, -12.35983753, 82.57721710, 0.75019187, -0.01761296, 0.12743646, -0.64858454, 0.06050969, -0.00355019, -0.00031866, 101.81400299, -40.62634277, 26.25000000, 0.00000000
1, 6.8000, 340, -0.28430694, -0.20073082, 0.95591903, 7.08963013, -4.07431316, 10.21690845, -18.75416756, -5.02703142, 13.13864422, -7.98668480, -12.32242584, 82.35837555, 0.75141132, -0.01838129, 0.12617107, -0.64739799, 0.06953876, -0.01658480, -0.00231509, 101.81400299, -40.62634277, 26.25000000, 0.00000000
1, 6.8200, 341, -0.29225948, -0.20884666, 0.93188465, 10.76878929, -2.47712469, 11.38762665, -18.63813782, -5.05542564, 13.80580330, -7.71120596, -12.28937435, 82.11076355, 0.75277334, -0.01972883, 0.12444330, -0.64610922, 0.07795781, -0.02931510, -0.02649431, 101.81400299, -40.62634277, 26.25000000, 0.00000000
1, 6.8400, 342, -0.28941637, -0.19611476, 0.93472457, 15.10918713, -2.58186913, 12.89675331, -18.20304298, -4.71469116, 14.13938999, -7.35142756, -12.28869915, 81.84374237, 0.75421232, -0.02180301, 0.12246087, -0.64474165, 0.07563134, -0.02208103, -0.02515730, 101.81400299, -40.62634277, 26.25000000, 0.00000000
1, 6.8600, 343, -0.28693518, -0.17428066, 0.95560926, 13.62098312, -0.19553602, 11.45175934, -18.75416756, -4.97024250, 13.95743179, -7.02888823, -12.30202961, 81.60954285, 0.75545996, -0.02375517, 0.12078117, -0.64352757, 0.07274663, -0.00515873, -0.00604731, 101.81400299, -40.62634277, 26.25000000, 0.00000000
1, 6.8800, 344, -0.28786939, -0.17158611, 0.94482654, 8.25034428, 1.86439264, 9.98798847, -18.46410179, -3.72088313, 14.38199425, -6.82115364, -12.37363338, 81.41477966, 0.75648201, -0.02532881, 0.12012441, -0.64238900, 0.07314385, -0.00741389, -0.01737439, 101.81400299, -40.62634277, 26.25000000, 0.00000000
1, 6.9000, 345, -0.28399488, -0.17801969, 0.92475766, 7.15682173, 0.53449261, 9.60537434, -18.75416756, -3.83446074, 14.41231632, -6.64886951, -12.40910053, 81.22837830, 0.75747359, -0.02647369, 0.11943327, -0.64130229, 0.06816788, -0.01827943, -0.03727471, 101.81400299, -40.62634277, 26.25000000, 0.00000000
1, 6.9200, 346, -0.29193842, -0.19188049, 0.92721003, -1.33785117, -1.29332185, 4.53763914, -18.95721054, -3.83446074, 14.38199425, -6.67392588, -12.34837246, 81.11623383, 0.75813007, -0.02584651, 0.11920176, -0.64059496, 0.07659710, -0.03319158, -0.03438620, 101.81400299, -40.62634277, 26.25000000, 0.00000000
1, 6.9400, 347, -0.28924420, -0.18090883, 0.93717402, -3.30695772, -1.41228008, 7.32632685, -18.29006195, -4.62950802, 15.07948303, -6.69633055, -12.34758091, 80.95867920, 0.75901538, -0.02552969, 0.11935702, -0.63952941, 0.07440584, -0.02091097, -0.02498928, 101.81400299, -40.62634277, 26.25000000, 0.00000000
1, 6.9600, 348, -0.28927383, -0.17999367, 0.95562094, 1.59874427, 0.24280918, 11.53549385, -19.27628517, -4.00482798, 15.23111153, -6.61385393, -12.36077309, 80.71782684, 0.76033437, -0.02590058, 0.11903786, -0.63800544, 0.07404853, -0.01982355, -0.00661369, 101.81400299, -40.62634277, 26.25000000, 0.00000000
1, 6.9800, 349, -0.28407857, -0.18002625, 0.94645202, 3.40714669, 5.07641077, 13.64547253, -18.63813782, -3.55051589, 14.98850822, -6.47705126, -12.50632763, 80.45195007, 0.76172268, -0.02735388, 0.11929553, -0.63623816, 0.06773988, -0.02193964, -0.01571644, 101.81400299, -40.62634277, 26.25000000, 0.00000000
1, 7.0000, 350, -0.27668259, -0.16764738, 0.94730008, 11.12821293, -4.89046669, 19.08324051, -18.89920044, -3.23817587, 15.04915714, -6.16983223, -12.48437691, 80.06651306, 0.76379281, -0.02887709, 0.11754271, -0.63401151, 0.05912990, -0.01359558, -0.01567084, 101.81400299, -40.62634277, 26.25000000, 0.00000000
1, 7.0200, 351, -0.27040374, -0.16298021, 0.94521719, 7.88934708, 2.56567979, 8.65739155, -18.43509483, -3.18138719, 15.26143837, -5.98704529, -12.52137089, 79.90164185, 0.76464123, -0.03013489, 0.11681889, -0.63306326, 0.05270093, -0.01361599, -0.01844985, 101.81400299, -40.62634277, 26.25000000, 0.00000000
1, 7.0400, 352, -0.26809680, -0.13558014, 0.95883417, 4.00509262, -1.34333730, 5.57886791, -18.34807587, -4.17519522, 15.65567112, -5.87757397, -12.50628185, 79.78579712, 0.76525849, -0.03066345, 0.11614539, -0.63241559, 0.05020055, 0.01246315, -0.00635690, 101.81400299, -40.62634277, 26.25000000, 0.00000000
1, 7.0600, 353, -0.27306643, -0.14254399, 0.97404683, 5.36415482, -2.76613522, 4.58177662, -18.75416756, -2.81225824, 15.53436852, -5.75247383, -12.39975739, 79.67517090, 0.76588249, -0.03079225, 0.11477981, -0.63190305, 0.05583819, 0.00409860, 0.00880942, 101.81400299, -40.62634277, 26.25000000, 0.00000000
1, 7.0800, 354, -0.27745309, -0.15041840, 0.96301991, 1.31250525, 5.47387648, -1.05760038, -18.26105309, -2.64189100, 15.44339371, -5.73903131, -12.51289654, 79.70740509, 0.76565051, -0.03154667, 0.11544609, -0.63202572, 0.06093400, -0.00560049, -0.00210005, 101.81400299, -40.62634277, 26.25000000, 0.00000000
1, 7.1000, 355, -0.27572411, -0.13985853, 0.94542110, 0.77983266, 11.82481194, 9.63200378, -18.29006195, -3.55051589, 14.80655289, -5.68830967, -12.78409004, 79.54070282, 0.76642960, -0.03323082, 0.11701001, -0.63070595, 0.05598253, 0.00380700, -0.01949874, 101.81400299, -40.62634277, 26.25000000, 0.00000000
1, 7.1200, 356, -0.29395238, -0.19164458, 0.93890107, -7.49168396, 10.97550964, 6.87634754, -18.37707901, -1.87523913, 14.98850822, -5.83979416, -12.98250866, 79.44129181, 0.76692641, -0.03322109, 0.11918698, -0.62969422, 0.06954400, -0.04819158, -0.02239019, 101.83200836, -42.11920929, 26.43999863, 0.00000000
1, 7.1400, 357, -0.29586020, -0.17216395, 0.94042480, -14.03006172, 3.74308419, -0.68903506, -18.08701324, -2.84065270, 15.26143837, -6.11207581, -13.05234909, 79.46147919, 0.76685989, -0.03180929, 0.12114001, -0.62947541, 0.06945878, -0.02430486, -0.02091047, 101.83200836, -42.11920929, 26.43999863, 0.00000000
1, 7.1600, 358, -0.26960698, -0.13043040, 0.93406808, -4.59309912, 3.58460021, 3.25259161, -18.08701324, -2.30115676, 15.44339371, -6.21444511, -13.13725853, 79.42769623, 0.76703411, -0.03156154, 0.12227400, -0.62905627, 0.04215182, 0.01985774, -0.02878585, 101.83200836, -42.11920929, 26.43999863, 0.00000000
1, 7.1800, 359, -0.29603538, -0.12899768, 0.95474821, -2.67685413, 10.50983715, 2.89964199, -18.31906891, -2.72707415, 15.04915714, -6.21626425, -13.33527565, 79.37042999, 0.76725525, -0.03259104, 0.12361184, -0.62847227, 0.06540380, 0.02442690, -0.00719573, 101.83200836, -42.11920929, 26.43999863, 0.00000000
1, 7.2000, 360, -0.30175376, -0.15714450, 0.96465570, 13.02510262, 2.79104543, 14.05643559, -18.20304298, -2.35794544, 14.56394482, -5.91009665, -13.43489933, 79.10192108, 0.76858711, -0.03490820, 0.12267464, -0.62690228, 0.06922386, -0.00738345, 0.00408082, 101.83200836, -42.11920929, 26.43999863, 0.00000000
1, 7.2200, 361, -0.29454041, -0.15960750, 0.91675276, 0.80865693, 4.19206238, 9.38910961, -18.05801010, -2.21597362, 15.53436852, -5.86334896, -13.50323868, 78.91520691, 0.76955861, -0.03540087, 0.12293051, -0.62563127, 0.06058032, -0.01509684, -0.04360124, 101.83200836, -42.11920929, 26.43999863, 0.00000000
1, 7.2400, 362, -0.28571454, -0.14783804, 0.90401715, -3.12627506, 1.76515746, 5.95328856, -17.73893738, -2.01721191, 15.38274002, -5.89440012, -13.55298328, 78.80025482, 0.77016997, -0.03534413, 0.12346629, -0.62477612, 0.05066531, -0.00384134, -0.05662784, 101.83200836, -42.11920929, 26.43999863, 0.00000000
1, 7.2600, 363, -0.29682365, -0.14464727, 0.94587946, 0.93680084, -0.68237734, 6.27791548, -18.05801010, -2.75546956, 15.01883030, -5.82558727, -13.50407887, 78.64939117, 0.77099574, -0.03537433, 0.12281232, -0.62388414, 0.06130963, 0.00131438, -0.01486601, 101.83200836, -42.11920929, 26.43999863, 0.00000000
1, 7.2800, 364, -0.30592325, -0.12843134, 0.97698975, -0.61309671, 1.94174910, 7.89815044, -17.91297722, -2.58510232, 15.20078564, -5.80259657, -13.56997776, 78.49041748, 0.77181929, -0.03572224, 0.12317584, -0.62277335, 0.07084542, 0.01793811, 0.01519855, 101.83200836, -42.11920929, 26.43999863, 0.00000000
1, 7.3000, 365, -0.29758710, -0.12547567, 0.95409292, 0.47803617, 2.71411538, 12.41883564, -18.11602020, -1.93202782, 15.35241413, -5.72248459, -13.66008663, 78.24132538, 0.77309865, -0.03649059, 0.12342104, -0.62109119, 0.06109560, 0.01918644, -0.00753465, 101.83200836, -42.11920929, 26.43999863, 0.00000000
1, 7.3200, 366, -0.30327681, -0.15718469, 0.93830281, 4.20028687, 1.53539467, 12.24171352, -17.56489563, -1.56289899, 15.23111153, -5.59452105, -13.69337940, 77.99291229, 0.77438426, -0.03727036, 0.12303094, -0.61951864, 0.06574456, -0.01560527, -0.02172588, 101.83200836, -42.11920929, 26.43999863, 0.00000000
1, 7.3400, 367, -0.30859599, -0.17074268, 0.92297322, -1.89508331, 1.47480106, 9.12433720, -17.97098732, -1.61968780, 15.29176521, -5.59790564, -13.74346352, 77.81608582, 0.77531314, -0.03733176, 0.12344222, -0.61827004, 0.07028560, -0.03084335, -0.03626665, 101.83200836, -42.11920929, 26.43999863, 0.00000000
1, 7.3600, 368, -0.30982864, -0.16538970, 0.91362208, -8.86309242, -0.82789844, 3.47747707, -17.76794434, -0.90982455, 15.53436852, -5.76804209, -13.70504475, 77.72772980, 0.77586478, -0.03587453, 0.12413033, -0.61752623, 0.07128258, -0.02461063, -0.04567382, 101.83200836, -42.11920929, 26.43999863, 0.00000000
1, 7.3800, 369, -0.31213379, -0.14973952, 0.92016369, -4.54058886, -1.58986795, 7.80179834, -17.24582672, -0.71106291, 15.89827442, -5.80021191, -13.69756413, 77.55747986, 0.77679533, -0.03543115, 0.12430631, -0.61634535, 0.07423139, -0.00611359, -0.03980654, 101.83200836, -42.11920929, 26.43999863, 0.00000000
1, 7.4000, 370, -0.32180566, -0.14390661, 0.96342432, 4.53241539, 0.46556816, 11.03769779, -16.81072807, -1.44932055, 15.74664593, -5.65432596, -13.74598598, 77.33325195, 0.77792799, -0.03644204, 0.12391818, -0.61493438, 0.08366334, 0.00040234, 0.00303104, 101.83200836, -42.11920929, 26.43999863, 0.00000000
1, 7.4200, 371, -0.32946494, -0.17218035, 0.94241661, 3.51912045, 5.02831364, 13.67139053, -16.78172112, -0.54069662, 15.50404263, -5.53260851, -13.86810493, 77.05881500, 0.77929139, -0.03763609, 0.12417665, -0.61308128, 0.08992960, -0.03131847, -0.01645548, 101.83200836, -42.11920929, 26.43999863, 0.00000000
1, 7.4400, 372, -0.32125422, -0.15397266, 0.92754382, -3.32464862, 6.04129028, 12.23011875, -17.21681976, -0.34193504, 16.14088249, -5.55564499, -14.01729965, 76.82969666, 0.78043842, -0.03803888, 0.12538125, -0.61134976, 0.07909270, -0.01503702, -0.03166844, 101.83200836, -42.11920929, 26.43999863, 0.00000000
1, 7.4600, 373, -0.32466418, -0.15102044, 0.93205154, -8.44401455, 4.70137024, 10.69538116, -16.83973503, -0.56909007, 16.65641785, -5.68103504, -14.12441730, 76.61747742, 0.78154892, -0.03753022, 0.12684233, -0.60965878, 0.08040172, -0.01039027, -0.02663687, 101.83200836, -42.11920929, 26.43999863, 0.00000000
1, 7.4800, 374, -0.33773807, -0.16095902, 0.94973385, -8.59160614, 4.94793463, 11.63082218, -16.78172112, -0.39872378, 17.14162827, -5.79428005, -14.25692177, 76.39343262, 0.78269964, -0.03722290, 0.12841256, -0.60787004, 0.09148443, -0.01729051, -0.00776131, 101.83200836, -42.11920929, 26.43999863, 0.00000000
1, 7.5000, 375, -0.32687652, -0.15612203, 0.92810452, -1.18044269, 5.56545115, 15.67692566, -16.81072807, -0.48390785, 16.83837128, -5.73162937, -14.41134548, 76.08553314, 0.78421879, -0.03813611, 0.12922743, -0.60567886, 0.07823045, -0.01295666, -0.02893946, 101.83200836, -42.11920929, 26.43999863, 0.00000000
1, 7.5200, 376, -0.31644917, -0.15247746, 0.90167141, 1.96271336, 1.53180575, 16.47704506, -16.52066231, 0.70866358, 16.62609100, -5.62055779, -14.45437431, 75.74243927, 0.78596574, -0.03874113, 0.12904845, -0.60340989, 0.06599582, -0.01253524, -0.05525044, 101.83200836, -42.11920929, 26.43999863, 0.00000000
1, 7.5400, 377, -0.32768548, -0.15774821, 0.92100579, -1.88049889, -2.53586411, 14.08457851, -16.63668823, 0.99260741, 16.92934799, -5.59117889, -14.44254208, 75.45052338, 0.78749770, -0.03855105, 0.12891200, -0.60145074, 0.07706717, -0.01810094, -0.03575488, 101.83200836, -42.11920929, 26.43999863, 0.00000000
1, 7.5600, 378, -0.33797383, -0.15463100, 0.94558614, -6.58122110, -3.98895097, 11.75544167, -16.02754784, 1.13458025, 17.65716362, -5.66278410, -14.37400341, 75.18215942, 0.78896928, -0.03739160, 0.12890922, -0.59959298, 0.08784177, -0.01333318, -0.01143317, 101.83200836, -42.11920929, 26.43999863, 0.00000000
1, 7.5800, 379, -0.32093453, -0.13569716, 0.92863494, -5.37292290, -2.10996437, 11.67592716, -15.73748589, 0.42471793, 17.53586197, -5.70207596, -14.37136364, 74.93475342, 0.79027623, -0.03682822, 0.12917662, -0.59784663, 0.07179034, 0.00592975, -0.02944187, 101.83200836, -42.11920929, 26.43999863, 0.00000000
1, 7.6000, 380, -0.31002179, -0.12806141, 0.91901135, 0.17500086, -1.17174888, 14.14763260, -15.70847893, 1.21976435, 18.17269707, -5.62211752, -14.38663387, 74.64096832, 0.79177141, -0.03713012, 0.12895936, -0.59589338, 0.06056393, 0.01273205, -0.03939110, 101.83200836, -42.11920929, 26.43999863, 0.00000000
1, 7.6200, 381, -0.31512773, -0.14305697, 0.93618274, -0.19080433, -2.40125990, 13.64023304, -15.21536541, 2.18517900, 17.99074745, -5.56666327, -14.34511471, 74.33638000, 0.79336017, -0.03695246, 0.12848544, -0.59389037, 0.06600077, -0.00281134, -0.02173014, 101.83200836, -42.11920929, 26.43999863, 0.00000000
1, 7.6400, 382, -0.32288936, -0.15842409, 0.95060313, -6.32298183, -0.83033133, 11.85755157, -15.24437237, 2.15678358, 18.56693459, -5.64554453, -14.36542320, 74.09767914, 0.79460818, -0.03624442, 0.12910928, -0.59212756, 0.07395959, -0.01744309, -0.00662077, 101.83200836, -42.11920929, 26.43999863, 0.00000000
1, 7.6600, 383, -0.31049097, -0.13796699, 0.93078345, -10.72902489, -0.27869543, 9.75530529, -14.75126266, 2.98022532, 18.87019157, -5.81044626, -14.35805607, 73.87226105, 0.79582685, -0.03480660, 0.12997937, -0.59038424, 0.06109233, 0.00445187, -0.02706319, 101.83200836, -42.11920929, 26.43999863, 0.00000000
1, 7.6800, 384, -0.30615789, -0.13818403, 0.92056286, -5.23664236, -1.52071691, 10.48173618, -14.43218899, 2.38394046, 19.62832832, -5.85258579, -14.35595131, 73.65115356, 0.79697853, -0.03425166, 0.13024834, -0.58880186, 0.05709437, 0.00567443, -0.03715277, 101.83200836, -42.11920929, 26.43999863, 0.00000000
1, 7.7000, 385, -0.30116913, -0.15085953, 0.91607177, -0.99084592, -4.80152798, 11.32052326, -14.14212322, 3.51972127, 20.75038147, -5.80507946, -14.29644394, 73.40219116, 0.79827797, -0.03398937, 0.12966844, -0.58718246, 0.05267387, -0.00734304, -0.04118327, 101.83200836, -42.11920929, 26.43999863, 0.00000000
