SensorId, TimeStamp (s), FrameNumber, AccX (g), AccY (g), AccZ (g), GyroX (deg/s), GyroY (deg/s), GyroZ (deg/s), MagX (uT), MagY (uT), MagZ (uT), EulerX (deg), EulerY (deg), EulerZ (deg), QuatW, QuatX, QuatY, QuatZ, LinAccX (g), LinAccY (g), LinAccZ (g), Pressure (kPa), Altitude (m), Temperature (degC), HeaveMotion (m)
1, 0.0000, 0, -0.00887989, -0.00466284, -1.00249422, 0.03422527, -0.64629138, -0.05852697, -37.34737015, -1.81844938, -57.48978043, -0.33723682, 1.11114502, -115.12051392, -0.53640920, 0.00660475, 0.00768485, -0.84389722, 0.02756441, 0.01033784, 0.00268496, 101.81100464, -40.37772369, 22.62999916, 0.00000000
1, 0.0200, 1, -0.01068508, -0.00331460, -1.00148284, -0.09661222, -1.40458775, -0.07174515, -37.72445297, -2.75546956, -58.09629440, -0.33892095, 1.08314729, -115.12210083, -0.53639835, 0.00639078, 0.00756612, -0.84390694, 0.02983353, 0.00921911, 0.00168362, 101.81100464, -40.37772369, 22.62999916, 0.00000000
1, 0.0400, 2, -0.01170111, -0.00340673, -1.00125790, 0.17275521, -1.13188124, -0.05313903, -37.60842514, -1.90363348, -57.67173004, -0.33555919, 1.06201863, -115.12329102, -0.53638977, 0.00625099, 0.00744240, -0.84391439, 0.03038554, 0.00929556, 0.00144986, 101.81100464, -40.37772369, 22.62999916, 0.00000000
1, 0.0600, 3, -0.01085886, -0.00452488, -1.00170827, 0.12904124, -0.21695074, 0.04910783, -37.66643906, -2.52831268, -57.12587738, -0.32328007, 1.03714371, -115.04822540, -0.53694230, 0.00612052, 0.00723956, -0.84356570, 0.02914219, 0.01025430, 0.00189183, 101.81100464, -40.37772369, 22.62999916, 0.00000000
1, 0.0800, 4, -0.01116078, -0.00295594, -1.00198543, 0.04078356, -0.39739379, -0.05707160, -37.26034546, -2.86904716, -57.58075333, -0.32222682, 1.02886963, -115.04936981, -0.53693402, 0.00606462, 0.00719298, -0.84357184, 0.02920061, 0.00859267, 0.00216407, 101.81100464, -40.37772369, 22.62999916, 0.00000000
1, 0.1000, 5, -0.01128009, -0.00395653, -1.00150919, 0.13990998, -0.25659406, -0.02226928, -37.28935623, -1.73326623, -57.00457001, -0.27473545, 0.88882315, -114.94720459, -0.53768647, 0.00525063, 0.00619189, -0.84310591, 0.02916925, 0.00955890, 0.00168489, 101.81100464, -40.37772369, 22.62999916, 0.00000000
1, 0.1200, 6, -0.01075497, -0.00295650, -1.00119877, -0.08607718, -0.03105755, 0.00127592, -36.94127274, -2.61349678, -57.03490067, -0.27679357, 0.88851917, -114.94749451, -0.53768438, 0.00523876, 0.00620559, -0.84310710, 0.02626090, 0.00777029, 0.00133048, 101.81100464, -40.37772369, 22.62999916, 0.00000000
1, 0.1400, 7, -0.01106855, -0.00405007, -1.00121307, -0.03542257, -0.03030379, -0.01924380, -37.81147385, -2.01721191, -57.70206070, -0.27760985, 0.88805956, -114.94780731, -0.53768212, 0.00523156, 0.00620942, -0.84310859, 0.02657367, 0.00888634, 0.00134500, 101.81100464, -40.37772369, 22.62999916, 0.00000000
1, 0.1600, 8, -0.01120976, -0.00421489, -1.00159979, -0.05490284, -0.09030704, 0.01792682, -37.66643906, -2.21597362, -57.24718475, -0.26459032, 0.83819950, -114.85140228, -0.53839153, 0.00492085, 0.00588383, -0.84265989, 0.02622509, 0.00892756, 0.00172373, 101.81100464, -40.37772369, 22.62999916, 0.00000000
1, 0.1800, 9, -0.01143763, -0.00363274, -1.00124311, -0.10719954, 0.03829465, -0.04479485, -37.26034546, -1.79005504, -57.33815765, -0.26702496, 0.83875710, -114.85250854, -0.53838348, 0.00491357, 0.00590431, -0.84266502, 0.02606791, 0.00826717, 0.00136086, 101.81100464, -40.37772369, 22.62999916, 0.00000000
1, 0.2000, 10, -0.01110833, -0.00367457, -1.00244892, -0.07066455, 0.30754000, -0.00317830, -37.55041122, -2.44312954, -57.61108398, -0.27567399, 0.86681616, -114.76594543, -0.53901976, 0.00507466, 0.00610357, -0.84225571, 0.02579664, 0.00834681, 0.00256776, 101.81100464, -40.37772369, 22.62999916, 0.00000000
1, 0.2200, 11, -0.01184381, -0.00441786, -1.00259912, 0.05469212, 0.05065457, -0.08620422, -37.34737015, -2.04560637, -57.58075333, -0.27439430, 0.86707723, -114.76780701, -0.53900605, 0.00508270, 0.00609531, -0.84226453, 0.02699028, 0.00922394, 0.00272533, 101.81100464, -40.37772369, 22.62999916, 0.00000000
1, 0.2400, 12, -0.01200010, -0.00422277, -1.00202012, 0.14772953, -0.10720067, 0.04398051, -37.75345612, -2.98262548, -57.30782700, -0.27143863, 0.86441642, -114.76651764, -0.53901541, 0.00507698, 0.00606113, -0.84225887, 0.02711120, 0.00898229, 0.00214559, 101.81100464, -40.37772369, 22.62999916, 0.00000000
1, 0.2600, 13, -0.01134714, -0.00464627, -1.00095892, 0.12982777, -0.27665231, 0.07608776, -37.40537643, -1.98881662, -57.67173004, -0.27720201, 0.89005697, -114.68864441, -0.53958750, 0.00523410, 0.00622765, -0.84189034, 0.02670523, 0.00944743, 0.00108843, 101.81100464, -40.37772369, 22.62999916, 0.00000000
1, 0.2800, 14, -0.01107383, -0.00447600, -1.00308836, 0.02303075, -0.56684053, -0.08444793, -37.08630753, -1.59129345, -56.76197433, -0.27699304, 0.87880915, -114.69010162, -0.53957695, 0.00515252, 0.00617309, -0.84189790, 0.02650782, 0.00930530, 0.00321904, 101.81100464, -40.37772369, 22.62999916, 0.00000000
1, 0.3000, 15, -0.01117313, -0.00324905, -1.00055635, -0.06837001, -0.54829550, -0.07236803, -37.05730438, -3.15299273, -57.70206070, -0.28961033, 0.90968055, -114.62248230, -0.54007363, 0.00531614, 0.00641428, -0.84157658, 0.02640756, 0.00809269, 0.00068414, 101.81100464, -40.37772369, 22.62999916, 0.00000000
1, 0.3200, 16, -0.01047190, -0.00273422, -1.00028694, -0.11569783, -0.08125730, -0.01052442, -36.76723862, -1.44932055, -57.30782700, -0.29218301, 0.90832466, -114.62261963, -0.54007274, 0.00529407, 0.00642678, -0.84157717, 0.02631664, 0.00780425, 0.00042530, 101.81100464, -40.37772369, 22.62999916, 0.00000000
1, 0.3400, 17, -0.01212303, -0.00365598, -1.00175083, -0.15575673, -0.12166329, 0.04767143, -37.55041122, -2.58510232, -57.55043793, -0.29526114, 0.90592021, -114.62196350, -0.54007787, 0.00526187, 0.00643808, -0.84157407, 0.02795917, 0.00878421, 0.00188937, 101.81100464, -40.37772369, 22.62999916, 0.00000000
1, 0.3600, 18, -0.01254607, -0.00480561, -1.00311148, -0.05300707, -0.20969957, -0.05699437, -37.14432144, -2.24436784, -57.21685410, -0.29557654, 0.89923620, -114.53968811, -0.54068202, 0.00520669, 0.00641264, -0.84118646, 0.02830386, 0.00997386, 0.00324906, 101.81100464, -40.37772369, 22.62999916, 0.00000000
1, 0.3800, 19, -0.01234792, -0.00533931, -1.00179017, 0.15146600, -0.35594213, -0.02701071, -36.91226959, -2.44312954, -57.03490067, -0.29203761, 0.89187634, -114.53961945, -0.54068249, 0.00516935, 0.00635194, -0.84118688, 0.02798319, 0.01047292, 0.00192554, 101.81100464, -40.37772369, 22.62999916, 0.00000000
1, 0.4000, 20, -0.01106955, -0.00347767, -1.00118828, 0.12198339, -0.42604646, 0.01975188, -37.69544220, -2.69867992, -57.27749634, -0.28622046, 0.85600019, -114.45180511, -0.54132736, 0.00492873, 0.00614375, -0.84077507, 0.02655293, 0.00855265, 0.00132101, 101.81100464, -40.37772369, 22.62999916, 0.00000000
1, 0.4200, 21, -0.01124849, -0.00305850, -1.00205684, -0.01532407, -0.02005309, -0.01906026, -37.23133850, -2.47152400, -57.30782700, -0.28632599, 0.85555172, -114.45195770, -0.54132634, 0.00492495, 0.00614240, -0.84077585, 0.02617843, 0.00805162, 0.00218071, 101.81100464, -40.37772369, 22.62999916, 0.00000000
1, 0.4400, 22, -0.01247399, -0.00392815, -1.00199926, -0.01114699, 0.22686478, -0.00286830, -37.17332458, -2.67028546, -57.58075333, -0.28669941, 0.86033732, -114.45158386, -0.54132897, 0.00495828, 0.00616776, -0.84077376, 0.02744040, 0.00892858, 0.00212380, 101.81100464, -40.37772369, 22.62999916, 0.00000000
1, 0.4600, 23, -0.01192625, -0.00433431, -1.00093806, -0.05959946, 0.07686486, -0.00908101, -36.91226959, -2.10239506, -57.36847305, -0.26151955, 0.82449460, -114.36666107, -0.54195142, 0.00480993, 0.00581727, -0.84037590, 0.02659220, 0.00909423, 0.00105698, 101.81100464, -40.37772369, 22.62999916, 0.00000000
1, 0.4800, 24, -0.01128075, -0.00467157, -1.00212991, -0.00028369, 0.17726676, -0.01522212, -37.69544220, -2.58510232, -57.33815765, -0.26081878, 0.82842493, -114.36636353, -0.54195344, 0.00484205, 0.00583073, -0.84037429, 0.02569218, 0.00923548, 0.00224424, 101.81100464, -40.37772369, 22.62999916, 0.00000000
1, 0.5000, 25, -0.01217729, -0.00290760, -1.00182855, 0.04708434, 0.38695851, 0.08297780, -37.72445297, -2.69867992, -57.00457001, -0.26962548, 0.86615646, -114.28773499, -0.54252970, 0.00507295, 0.00607723, -0.83999938, 0.02669796, 0.00744810, 0.00194442, 101.81100464, -40.37772369, 22.62999916, 0.00000000
1, 0.5200, 26, -0.01240771, -0.00208504, -1.00211537, 0.28811720, 0.50996208, 0.14466408, -37.20233536, -2.24436784, -57.42913437, -0.26194173, 0.87908173, -114.28542328, -0.54254609, 0.00520395, 0.00608220, -0.83998799, 0.02761100, 0.00676261, 0.00224191, 101.81100464, -40.37772369, 22.62999916, 0.00000000
1, 0.5400, 27, -0.01100237, -0.00479362, -1.00286508, -0.02916601, 0.76400167, 0.08161019, -37.63742828, -3.01101995, -57.45946503, -0.26050210, 0.89469838, -114.28359222, -0.54255909, 0.00532515, 0.00614567, -0.83997828, 0.02658143, 0.00933625, 0.00299682, 101.81100464, -40.37772369, 22.62999916, 0.00000000
1, 0.5600, 28, -0.01099657, -0.00502249, -1.00120807, 0.24168465, 0.24057363, 0.01396055, -37.20233536, -1.79005504, -57.27749634, -0.21362025, 0.80172956, -114.19128418, -0.54323530, 0.00486130, 0.00536577, -0.83954936, 0.02567734, 0.00910635, 0.00132456, 101.81100464, -40.37772369, 22.62999916, 0.00000000
1, 0.5800, 29, -0.01140033, -0.00481346, -1.00124073, 0.23180103, 0.22052188, 0.03300615, -37.49240112, -2.07400060, -57.21685410, -0.20992550, 0.80674863, -114.19115448, -0.54323602, 0.00491558, 0.00536250, -0.83954847, 0.02542743, 0.00849203, 0.00134586, 101.81100464, -40.37772369, 22.62999916, 0.00000000
1, 0.6000, 30, -0.01150901, -0.00461793, -1.00219941, -0.11532079, 0.43430912, -0.01164596, -36.79624176, -3.09620309, -57.00457001, -0.21313086, 0.82244796, -114.11415100, -0.54379982, 0.00501174, 0.00546378, -0.83918220, 0.02566391, 0.00829897, 0.00230639, 101.81100464, -40.37772369, 22.62999916, 0.00000000
1, 0.6200, 31, -0.01129522, -0.00464147, -1.00116849, -0.08673491, 0.54420233, 0.07231365, -37.34737015, -2.24436784, -57.12587738, -0.21427777, 0.83297396, -114.11232758, -0.54381305, 0.00508330, 0.00552221, -0.83917296, 0.02574639, 0.00837236, 0.00127987, 101.81100464, -40.37772369, 22.62999916, 0.00000000
1, 0.6400, 32, -0.01085751, -0.00396885, -1.00096726, 0.15020399, 0.24916153, 0.11480547, -37.49240112, -2.21597362, -57.06521606, -0.21179442, 0.83745861, -114.11047363, -0.54382646, 0.00512783, 0.00552539, -0.83916390, 0.02544607, 0.00768230, 0.00108050, 101.81100464, -40.37772369, 22.62999916, 0.00000000
1, 0.6600, 33, -0.01110511, -0.00373125, -1.00148857, 0.08238687, 0.06902582, -0.07096213, -37.40537643, -1.39253175, -57.12587738, -0.18531616, 0.75587910, -114.01566315, -0.54452109, 0.00465197, 0.00494819, -0.83871967, 0.02490485, 0.00717045, 0.00159001, 101.81100464, -40.37772369, 22.62999916, 0.00000000
1, 0.6800, 34, -0.01084581, -0.00325995, -1.00235605, 0.07041974, 0.18826959, -0.01573044, -37.55041122, -1.98881662, -57.12587738, -0.18408503, 0.75946677, -114.01586914, -0.54451948, 0.00468409, 0.00495622, -0.83872050, 0.02407097, 0.00647384, 0.00244862, 101.81100464, -40.37772369, 22.62999916, 0.00000000
1, 0.7000, 35, -0.01154500, -0.00442301, -1.00237167, -0.03890756, 0.03736222, 0.03837064, -36.76723862, -2.38634062, -57.55043793, -0.11352553, 0.60718280, -113.92387390, -0.54519290, 0.00390178, 0.00371930, -0.83829343, 0.02481854, 0.00764067, 0.00246494, 101.81100464, -40.37772369, 22.62999916, 0.00000000
1, 0.7200, 36, -0.01178709, -0.00456651, -1.00141275, -0.00821339, 0.00796066, 0.07623032, -37.31835938, -2.32955098, -57.94467163, -0.11329871, 0.60762399, -113.92249298, -0.54520297, 0.00390604, 0.00371978, -0.83828682, 0.02238729, 0.00655531, 0.00147086, 101.81100464, -40.37772369, 22.62999916, 0.00000000
1, 0.7400, 37, -0.01138463, -0.00409820, -1.00138879, 0.00940680, 0.20726673, -0.01397960, -36.85425568, -1.87523913, -56.91359711, -0.11260933, 0.61190063, -113.92284393, -0.54520029, 0.00394062, 0.00373508, -0.83828825, 0.02201703, 0.00606806, 0.00144727, 101.81100464, -40.37772369, 22.62999916, 0.00000000
1, 0.7600, 38, -0.01133490, -0.00361556, -1.00199413, 0.01846821, 0.26710978, 0.06795529, -37.14432144, -1.76166058, -57.61108398, -0.11328252, 0.60526812, -113.82560730, -0.54591155, 0.00388574, 0.00371174, -0.83782554, 0.02194181, 0.00558801, 0.00205232, 101.81100464, -40.37772369, 22.62999916, 0.00000000
1, 0.7800, 39, -0.01156226, -0.00389371, -1.00198042, -0.01193897, 0.27661160, 0.02917500, -37.52140427, -2.92583585, -57.12587738, -0.11330044, 0.61005849, -113.82487488, -0.54591680, 0.00392066, 0.00373472, -0.83782196, 0.02217555, 0.00587455, 0.00203874, 101.81100464, -40.37772369, 22.62999916, 0.00000000
1, 0.8000, 40, -0.01129820, -0.00438089, -1.00193405, 0.00108773, 0.09767524, -0.10812991, -36.91226959, -2.32955098, -57.64141464, -0.02251173, 0.37295288, -113.73019409, -0.54661012, 0.00261799, 0.00194352, -0.83738101, 0.02196073, 0.00636221, 0.00199285, 101.81100464, -40.37772369, 22.62999916, 0.00000000
1, 0.8200, 41, -0.01154124, -0.00446633, -1.00123644, -0.10106000, 0.03387649, -0.03935460, -37.11531067, -2.13078952, -57.18652344, -0.02464084, 0.37380275, -113.73088837, -0.54660505, 0.00261406, 0.00196312, -0.83738416, 0.01804643, 0.00487323, 0.00125763, 101.81100464, -40.37772369, 22.62999916, 0.00000000
1, 0.8400, 42, -0.01119334, -0.00395013, -1.00178862, -0.14403313, 0.20242068, -0.01114806, -36.97027588, -1.42092621, -57.27749634, -0.02788280, 0.37829366, -113.73102570, -0.54660404, 0.00263141, 0.00200823, -0.83738470, 0.01774446, 0.00440478, 0.00181012, 101.81100464, -40.37772369, 22.62999916, 0.00000000
1, 0.8600, 43, -0.01091279, -0.00389881, -1.00175261, -0.22688594, 0.34051937, -0.05316642, -37.34737015, -2.10239506, -57.58075333, -0.04727324, 0.43327746, -113.65890503, -0.54713064, 0.00293920, 0.00241405, -0.83703858, 0.01805067, 0.00456896, 0.00177852, 101.81100464, -40.37772369, 22.62999916, 0.00000000
1, 0.8800, 44, -0.01154568, -0.00371574, -1.00217032, -0.11357084, 0.20287524, -0.05121888, -37.17332458, -2.52831268, -57.36847305, -0.04927188, 0.43726376, -113.65979004, -0.54712421, 0.00295879, 0.00244766, -0.83704263, 0.01914525, 0.00456380, 0.00219961, 101.81100464, -40.37772369, 22.62999916, 0.00000000
1, 0.9000, 45, -0.01015755, -0.00430192, -1.00158238, 0.01452775, 0.43367165, 0.02696681, -37.17332458, -2.64189100, -57.03490067, -0.06131484, 0.48107627, -113.58183289, -0.54769319, 0.00321946, 0.00274700, -0.83666855, 0.01786141, 0.00515746, 0.00161239, 101.81100464, -40.37772369, 22.62999916, 0.00000000
1, 0.9200, 46, -0.01017318, -0.00508622, -1.00145268, 0.14499031, 0.46919692, 0.05561901, -37.05730438, -2.04560637, -56.85295105, -0.05861276, 0.49088150, -113.58058167, -0.54770207, 0.00330393, 0.00277417, -0.83666241, 0.01863968, 0.00612680, 0.00148901, 101.81100464, -40.37772369, 22.62999916, 0.00000000
1, 0.9400, 47, -0.00985433, -0.00577710, -1.00084960, -0.00945178, 0.65599108, 0.02678473, -37.37637329, -2.67028546, -57.64141464, -0.05862252, 0.50430322, -113.57983398, -0.54770726, 0.00340186, 0.00283841, -0.83665836, 0.01852758, 0.00679800, 0.00088768, 101.81100464, -40.37772369, 22.62999916, 0.00000000
1, 0.9600, 48, -0.01029746, -0.00449288, -1.00158501, -0.10512424, 0.94316936, 0.20991576, -36.94127274, -1.84684467, -56.88326645, -0.07549550, 0.57307804, -113.51295471, -0.54819477, 0.00382144, 0.00329255, -0.83633554, 0.01975835, 0.00567692, 0.00163052, 101.81100464, -40.37772369, 22.62999916, 0.00000000
1, 0.9800, 49, -0.00211276, -0.01729168, -0.99382502, -0.15524305, 3.84825706, 3.62583518, -37.14432144, -2.04560637, -57.67173004, -0.08263673, 0.64955705, -113.41089630, -0.54893810, 0.00434214, 0.00371441, -0.83584350, 0.01251196, 0.01862499, -0.00611997, 101.81100464, -40.37772369, 22.62999916, 0.00000000
1, 1.0000, 50, -0.01360912, 0.00361589, -1.00162411, -3.72554064, 1.24705040, 13.22306252, -37.17332458, -1.98881662, -57.76272202, -0.14915112, 0.69686508, -113.13954163, -0.55091745, 0.00435809, 0.00443652, -0.83453667, 0.02501135, -0.00139741, 0.00169159, 101.81100464, -40.37772369, 22.62999916, 0.00000000
1, 1.0200, 51, -0.00601614, -0.00711906, -1.00212097, -1.46530044, 2.30584025, 10.07693386, -36.94127274, -1.64808309, -57.06521606, -0.17798977, 0.74173141, -112.93367767, -0.55241597, 0.00453745, 0.00487040, -0.83354199, 0.01863736, 0.00986718, 0.00220438, 101.81100464, -40.37772369, 22.62999916, 0.00000000
1, 1.0400, 52, -0.00715666, 0.00193612, -1.00253010, -0.93334556, 1.30861890, 9.50786114, -36.59319305, -1.39253175, -57.00457001, -0.19301206, 0.76821184, -112.74633789, -0.55377799, 0.00464930, 0.00511493, -0.83263570, 0.02035141, 0.00135251, 0.00262255, 101.81100464, -40.37772369, 22.62999916, 0.00000000
1, 1.0600, 53, -0.00395559, -0.02188847, -0.99706620, -1.93769288, 3.56238151, 17.71558189, -37.20233536, -1.10858703, -56.94392776, -0.23857673, 0.84887892, -112.35530090, -0.55661637, 0.00499530, 0.00585291, -0.83073407, 0.01800733, 0.02547256, -0.00282856, 101.81100464, -40.37772369, 22.62999916, 0.00000000
1, 1.0800, 54, -0.00713808, 0.00857936, -1.00375533, -4.47993469, 2.22069788, 21.90357399, -37.28935623, -1.27895427, -57.48978043, -0.31278354, 0.89545840, -111.92516327, -0.55973297, 0.00494766, 0.00663573, -0.82863170, 0.02230619, -0.00348165, 0.00388348, 101.81100464, -40.37772369, 22.62999916, 0.00000000
1, 1.1000, 55, -0.00364293, 0.00154473, -1.00057435, -2.75541735, 2.47535419, 18.99576759, -36.68021011, -2.10239506, -57.76272202, -0.36555889, 0.95804298, -111.53447723, -0.56255597, 0.00511746, 0.00734052, -0.82671076, 0.01969822, 0.00428897, 0.00072034, 101.81100464, -40.37772369, 22.62999916, 0.00000000
1, 1.1200, 56, -0.00607143, -0.00117161, -0.99949348, -2.57133842, 3.07503486, 22.90688133, -37.14432144, -0.68266946, -57.36847305, -0.41179800, 1.02712178, -111.06386566, -0.56594729, 0.00535588, 0.00803527, -0.82438493, 0.02332542, 0.00792709, -0.00033482, 101.81100464, -40.37772369, 22.62999916, 0.00000000
1, 1.1400, 57, -0.00668101, 0.00648056, -1.00460315, -3.70974040, 3.97348475, 27.71322060, -37.08630753, 0.48150671, -57.45946503, -0.47346982, 1.10801709, -110.51596069, -0.56988394, 0.00559077, 0.00890526, -0.82165796, 0.02539822, 0.00140040, 0.00480944, 101.81100464, -40.37772369, 22.62999916, 0.00000000
1, 1.1600, 58, -0.00093901, 0.00712394, -1.00156581, -2.83742499, 2.26488948, 24.64792633, -37.17332458, -0.25675094, -57.18652344, -0.52000600, 1.16558623, -110.01873779, -0.57344502, 0.00573077, 0.00955016, -0.81916839, 0.02083045, 0.00162787, 0.00180207, 101.81100464, -40.37772369, 22.62999916, 0.00000000
1, 1.1800, 59, 0.01552076, 0.01478127, -1.00373960, -0.42227051, 0.03198555, 18.86957169, -36.99929047, 0.90742522, -57.21685410, -0.52020091, 1.17018509, -109.65266418, -0.57605892, 0.00573205, 0.00959292, -0.81733179, 0.00489046, -0.00570216, 0.00398912, 101.81100464, -40.37772369, 22.62999916, 0.00000000
1, 1.2000, 60, 0.00349629, 0.00503849, -1.00296843, 0.67488718, -0.66799980, 13.23030567, -36.97027588, 0.33953387, -57.79303741, -0.50299042, 1.17421818, -109.37255859, -0.57805413, 0.00582413, 0.00950470, -0.81592238, 0.01687019, 0.00389587, 0.00321580, 101.81100464, -40.37772369, 22.62999916, 0.00000000
1, 1.2200, 61, -0.00108487, 0.00421357, -0.99957645, -0.18965900, -0.62119836, 14.60303688, -36.94127274, -0.45551255, -57.45946503, -0.49963993, 1.16641641, -109.08436584, -0.58010429, 0.00576171, 0.00945602, -0.81446707, 0.02145628, 0.00450363, -0.00017809, 101.81100464, -40.37772369, 22.62999916, 0.00000000
1, 1.2400, 62, 0.00042818, 0.00537922, -1.00270522, -0.46029851, 0.06150944, 13.67674637, -36.73822784, 1.41852593, -57.64141464, -0.49962163, 1.17061388, -108.81405640, -0.58202386, 0.00576927, 0.00949077, -0.81309599, 0.01993226, 0.00337303, 0.00295080, 101.81100464, -40.37772369, 22.62999916, 0.00000000
1, 1.2600, 63, -0.00108116, 0.00177173, -0.99985242, -0.78917348, 0.95226079, 14.60480213, -37.23133850, 1.07779145, -57.82336807, -0.51408768, 1.21160400, -108.50342560, -0.58422565, 0.00596007, 0.00981777, -0.81151003, 0.02181541, 0.00694225, 0.00010540, 101.81100464, -40.37772369, 22.62999916, 0.00000000
1, 1.2800, 64, -0.00006223, 0.00518701, -1.00265574, 1.12847126, 3.05067039, 17.01352501, -36.91226959, 1.87283790, -57.82336807, -0.48469147, 1.27549875, -108.16310883, -0.58662993, 0.00653292, 0.00995475, -0.80976760, 0.02175243, 0.00351669, 0.00292891, 101.81100464, -40.37772369, 22.62999916, 0.00000000
1, 1.3000, 65, -0.00217411, 0.00059590, -1.00234985, 0.83308321, 3.34470153, 20.10452652, -36.62220383, 1.61728752, -57.76272202, -0.45900312, 1.35570514, -107.74633789, -0.58956724, 0.00719416, 0.01021001, -0.80762279, 0.02504692, 0.00761722, 0.00264531, 101.81100464, -40.37772369, 22.62999916, 0.00000000
1, 1.3200, 66, -0.00579974, 0.00665422, -1.00307977, 0.21136394, 2.46951818, 22.74982071, -36.53517914, 1.90123320, -57.42913437, -0.44319281, 1.40862572, -107.29368591, -0.59274995, 0.00760748, 0.01040095, -0.80528349, 0.02992806, 0.00122825, 0.00340194, 101.81100464, -40.37772369, 22.62999916, 0.00000000
1, 1.3400, 67, 0.00310943, 0.00610862, -1.00269306, 0.35115215, 2.80006194, 21.63288689, -36.76723862, 1.61728752, -58.39955139, -0.42398900, 1.46948254, -106.86190796, -0.59577632, 0.00809458, 0.01061132, -0.80303949, 0.02198893, 0.00145377, 0.00303671, 101.81100464, -40.37772369, 22.62999916, 0.00000000
1, 1.3600, 68, 0.00675508, 0.00397617, -1.00432420, 0.04708082, 3.36276340, 22.61487198, -36.53517914, 2.07159948, -57.12587738, -0.41171968, 1.55494940, -106.39879608, -0.59901226, 0.00871295, 0.01100494, -0.80061680, 0.01960217, 0.00334057, 0.00469852, 101.81100464, -40.37772369, 22.62999916, 0.00000000
1, 1.3800, 69, 0.01218060, 0.00460854, -1.00156701, 0.05951768, 3.66144514, 24.02626801, -36.15809631, 2.95182991, -57.97498703, -0.39869425, 1.63010645, -105.91387177, -0.60239029, 0.00925824, 0.01134603, -0.79806739, 0.01564296, 0.00244063, 0.00197910, 101.81100464, -40.37772369, 22.62999916, 0.00000000
1, 1.4000, 70, 0.00981942, -0.00045283, -1.00271785, 0.13415767, 3.39366794, 28.08735466, -35.98405838, 3.40614200, -56.76197433, -0.38038537, 1.71229661, -105.33502960, -0.60640800, 0.00986796, 0.01170052, -0.79500639, 0.01924101, 0.00724290, 0.00316336, 101.81100464, -40.37772369, 22.62999916, 0.00000000
1, 1.4200, 71, 0.00092698, 0.00918203, -1.00347710, -0.53869522, 4.50790119, 35.74216461, -36.36114120, 2.75306845, -58.33890533, -0.36563042, 1.80834055, -104.60929871, -0.61142367, 0.01053553, 0.01217331, -0.79113966, 0.02977471, -0.00263928, 0.00397003, 101.81100464, -40.37772369, 22.62999916, 0.00000000
1, 1.4400, 72, 0.00706096, 0.00387253, -1.00738311, -0.70426100, 4.17687511, 39.07017899, -35.43293762, 3.80366707, -57.55043793, -0.35285288, 1.89731216, -103.83218384, -0.61676770, 0.01113258, 0.01263554, -0.78696501, 0.02530443, 0.00241257, 0.00792695, 101.81100464, -40.37772369, 22.62999916, 0.00000000
1, 1.4600, 73, 0.01452113, 0.00496227, -1.00411129, -1.03903604, 3.86347508, 37.10757065, -35.66498947, 3.91724443, -57.52011108, -0.34970868, 1.98578131, -103.08889771, -0.62185276, 0.01167196, 0.01316604, -0.78293663, 0.01941873, 0.00112472, 0.00470600, 101.81100464, -40.37772369, 22.62999916, 0.00000000
1, 1.4800, 74, 0.01690385, 0.00125479, -1.00141299, 0.53569806, 1.69770980, 31.03704834, -35.37492371, 4.17279482, -57.15620804, -0.31829777, 2.02342796, -102.48359680, -0.62597364, 0.01202999, 0.01321942, -0.77963942, 0.01812879, 0.00459413, 0.00204398, 101.81100464, -40.37772369, 22.62999916, 0.00000000
1, 1.5000, 75, 0.01755360, 0.00243020, -1.00041866, 0.31772825, 0.60027874, 19.25192451, -35.49094391, 4.37155628, -57.55043793, -0.30212656, 2.05681825, -102.09526825, -0.62860769, 0.01230041, 0.01333353, -0.77751100, 0.01790923, 0.00293049, 0.00106205, 101.81100464, -40.37772369, 22.62999916, 0.00000000
1, 1.5200, 76, 0.01655210, 0.00289014, -1.00079823, -1.95209670, -1.10514617, 13.75347996, -35.17187500, 5.19499826, -57.79303741, -0.33187521, 2.03577185, -101.82221222, -0.63046336, 0.01196239, 0.01344849, -0.77601027, 0.01919941, 0.00255023, 0.00145233, 101.81100464, -40.37772369, 22.62999916, 0.00000000
1, 1.5400, 77, 0.01348354, 0.00902778, -1.00271463, -2.45519781, -0.56525135, 13.49807549, -35.51995468, 4.76907969, -57.24718475, -0.37261912, 2.02657318, -101.55233765, -0.63229418, 0.01164369, 0.01370126, -0.77451980, 0.02191588, -0.00290400, 0.00336018, 101.81100464, -40.37772369, 22.62999916, 0.00000000
1, 1.5600, 78, 0.01153499, 0.00757029, -1.00429058, -4.92551136, 0.00506565, 14.42228699, -34.96882629, 5.96164942, -57.33815765, -0.46466184, 2.04794931, -101.25227356, -0.63432771, 0.01124246, 0.01447079, -0.77284712, 0.02399561, -0.00034834, 0.00494819, 101.81100464, -40.37772369, 22.62999916, 0.00000000
1, 1.5800, 79, 0.00812775, 0.00975190, -1.00480783, -7.02385569, 1.36709487, 15.89313507, -35.20087814, 4.71229076, -57.61108398, -0.59780526, 2.07765126, -100.93205261, -0.63649553, 0.01066232, 0.01556298, -0.77104968, 0.02787798, -0.00060926, 0.00549820, 101.81100464, -40.37772369, 22.62999916, 0.00000000
1, 1.6000, 80, 0.01562267, 0.01298579, -1.00039005, -8.18275356, 1.08118737, 15.44057941, -35.46194077, 6.01843977, -57.61108398, -0.75235152, 2.11781979, -100.61666107, -0.63862675, 0.01002787, 0.01685358, -0.76926678, 0.02083818, -0.00121672, 0.00112446, 101.81100464, -40.37772369, 22.62999916, 0.00000000
1, 1.6200, 81, 0.01701088, 0.01349572, -0.99914140, -7.20051146, 0.82720363, 12.71827793, -35.02684021, 6.24559498, -58.09629440, -0.88555622, 2.13725352, -100.36415100, -0.64033049, 0.00937662, 0.01787676, -0.76783425, 0.02011243, 0.00083849, -0.00006636, 101.81100464, -40.37772369, 22.62999916, 0.00000000
1, 1.6400, 82, 0.01283001, 0.01488697, -1.00078785, -5.60161972, 0.00518865, 9.53467846, -35.20087814, 5.96164942, -57.18652344, -0.99078429, 2.13794351, -100.17705536, -0.64159155, 0.00876288, 0.01860003, -0.76677084, 0.02452266, 0.00145664, 0.00161949, 101.81100464, -40.37772369, 22.62999916, 0.00000000
1, 1.6600, 83, 0.00262651, 0.01642788, -1.01585877, -4.80092812, -2.50066853, 7.28626347, -34.91081238, 6.89866877, -57.52011108, -1.07864082, 2.10904527, -100.01195526, -0.64270329, 0.00805013, 0.01903779, -0.76583630, 0.03459011, 0.00172343, 0.01671650, 101.81100464, -40.37772369, 22.62999916, 0.00000000
1, 1.6800, 84, -0.01198560, 0.01357360, -1.00883365, -6.63801432, -4.36929655, 11.81657696, -35.05584717, 6.50114536, -57.03490067, -1.20486689, 2.02886248, -99.76596832, -0.64435679, 0.00676440, 0.01944641, -0.76444787, 0.04807026, 0.00632819, 0.00968330, 101.81100464, -40.37772369, 22.62999916, 0.00000000
1, 1.7000, 85, -0.00243639, 0.02175685, -1.00064564, -6.94475651, -4.01572847, 15.05918694, -34.56274033, 5.99004459, -56.61034012, -1.33078063, 1.97276855, -99.46366119, -0.64637947, 0.00562934, 0.01998603, -0.76273364, 0.03721017, 0.00041977, 0.00149677, 101.81100464, -40.37772369, 22.62999916, 0.00000000
1, 1.7200, 86, -0.01326277, 0.01473866, -1.01271677, -3.49426675, -3.09841180, 10.37267399, -34.24366379, 5.64931011, -56.61034012, -1.39223647, 1.91800952, -99.24777985, -0.64781898, 0.00488023, 0.02009558, -0.76151365, 0.04715491, 0.00906588, 0.01357482, 101.81100464, -40.37772369, 22.62999916, 0.00000000
1, 1.7400, 87, -0.00401695, 0.00815588, -1.06343138, -0.33330956, -8.62465763, 12.59083557, -33.86657715, 5.42215347, -56.18577576, -1.37752771, 1.72363937, -99.00753784, -0.64941537, 0.00363162, 0.01890715, -0.76019013, 0.03644483, 0.01628758, 0.06425653, 101.81100464, -40.37772369, 22.62999916, 0.00000000
1, 1.7600, 88, 0.00488815, 0.01997370, -1.05170262, 8.26890850, -22.49888992, 3.78841615, -33.08340454, 5.05302525, -56.24643707, -1.20395195, 1.29563725, -98.92527771, -0.64995694, 0.00176408, 0.01533214, -0.75981444, 0.02135859, 0.00270413, 0.05230648, 101.81100464, -40.37772369, 22.62999916, 0.00000000
1, 1.7800, 89, 0.03449151, 0.03690478, -1.02880812, 12.32466793, -14.83501053, -2.22190070, -32.82234192, 4.03082228, -55.57926178, -0.96002555, 1.01108956, -98.96784210, -0.64966983, 0.00126499, 0.01210064, -0.76011926, -0.01462089, -0.01801868, 0.02918538, 101.81100464, -40.37772369, 22.62999916, 0.00000000
1, 1.8000, 90, 0.01558018, 0.02731517, -1.00516880, 10.72596359, -6.14074659, -3.66228819, -31.69109154, 1.95802200, -55.91284943, -0.74670434, 0.88525438, -99.02160645, -0.64930999, 0.00164427, 0.00997151, -0.76045674, 0.00107208, -0.01243781, 0.00541864, 101.81100464, -40.37772369, 22.62999916, 0.00000000
1, 1.8200, 91, -0.01772059, 0.01013559, -1.00051367, 10.99048328, -18.02976608, 3.09268808, -31.57506180, 2.07159948, -55.79154205, -0.52680784, 0.53078347, -98.95806885, -0.64972883, 0.00053410, 0.00650411, -0.76013809, 0.03006709, 0.00094029, 0.00065302, 101.81100464, -40.37772369, 22.62999916, 0.00000000
1, 1.8400, 92, -0.01683312, 0.00282292, -1.02847767, 11.81755924, -11.29983044, 2.22095966, -31.13996315, -0.31353971, -55.36698151, -0.28696740, 0.31227154, -98.91220856, -0.65003139, 0.00044296, 0.00367438, -0.75989842, 0.02394078, 0.00435822, 0.02852972, 101.81100464, -40.37772369, 22.62999916, 0.00000000
1, 1.8600, 93, -0.03765203, -0.00638505, -1.03597403, 14.53650093, -14.13562584, 3.88533902, -30.12473106, -0.28514627, -55.45797348, 0.00560709, 0.02352126, -98.82669830, -0.65059757, 0.00018771, 0.00009638, -0.75942272, 0.04108721, 0.00891812, 0.03598483, 101.81100464, -40.37772369, 22.62999916, 0.00000000
1, 1.8800, 94, -0.01249307, 0.01112086, -0.97749978, 14.91026592, -20.58896065, 4.68317175, -29.80566216, -1.59129345, -55.30633545, 0.29775095, -0.37985003, -98.74260712, -0.65115535, -0.00082382, -0.00413045, -0.75893277, 0.00923054, -0.01384608, -0.02248872, 101.81100464, -40.37772369, 22.62999916, 0.00000000
1, 1.9000, 95, -0.02179746, 0.00832296, -0.93948692, 10.12488174, -5.63229561, -0.99322182, -28.81944275, -2.30115676, -55.15471649, 0.48578504, -0.43959054, -98.76029968, -0.65103918, -0.00015188, -0.00571522, -0.75902259, 0.01369787, -0.01540770, -0.06045478, 101.81100464, -40.37772369, 22.62999916, 0.00000000
1, 1.9200, 96, -0.06720552, -0.03894305, -1.02011955, 8.56090069, 2.59469843, -1.50392187, -28.26831436, -3.38014865, -55.21535873, 0.66358536, -0.40285686, -98.79001617, -0.65084106, 0.00109986, -0.00668451, -0.75918376, 0.06013333, 0.02907649, 0.02019357, 101.81100464, -40.37772369, 22.62999916, 0.00000000
1, 1.9400, 97, -0.05940386, -0.03482292, -1.02332616, 12.63308620, -17.03989029, 0.39836705, -27.51414490, -5.31097603, -54.36623383, 0.91643250, -0.76659632, -98.78072357, -0.65090746, 0.00012689, -0.01042535, -0.75908560, 0.04996566, 0.02105864, 0.02346744, 101.81100464, -40.37772369, 22.62999916, 0.00000000
1, 1.9600, 98, -0.01104358, -0.00555582, -0.96193337, 11.94651890, -21.94662094, 3.46364617, -26.52791786, -5.14060974, -54.00233078, 1.14469814, -1.17283285, -98.71652222, -0.65133840, -0.00125978, -0.01424520, -0.75865263, -0.00630202, -0.01256556, -0.03774995, 101.81100464, -40.37772369, 22.62999916, 0.00000000
1, 1.9800, 99, -0.01566140, -0.01019741, -0.98829615, 9.84005070, -9.68733311, 6.55672503, -26.38288498, -6.33317947, -53.69907379, 1.34220695, -1.36517596, -98.58630371, -0.65220404, -0.00139185, -0.01664733, -0.75785947, -0.00664199, -0.01143750, -0.01122038, 101.81100464, -40.37772369, 22.62999916, 0.00000000
1, 2.0000, 100, -0.04339872, -0.02555936, -1.03500295, 13.43575382, -10.05193615, 7.79690790, -26.12182999, -6.33317947, -53.97200394, 1.60979795, -1.56290114, -98.43852234, -0.65318620, -0.00115161, -0.01954341, -0.75694424, 0.01791382, -0.00007005, 0.03565755, 101.81100464, -40.37772369, 22.62999916, 0.00000000
1, 2.0200, 101, -0.05192488, -0.02435406, -1.00880289, 15.81304550, -14.08694744, 7.22005510, -25.51269531, -8.00845623, -53.82038116, 1.92270494, -1.85352743, -98.30291748, -0.65408963, -0.00126083, -0.02326743, -0.75605810, 0.02226138, -0.00644135, 0.00971917, 101.81100464, -40.37772369, 22.62999916, 0.00000000
1, 2.0400, 102, -0.03593235, -0.02679369, -1.02576733, 18.49238968, -13.56935596, 5.53993940, -24.96156693, -9.14423752, -52.69832993, 2.29737425, -2.11657166, -98.20371246, -0.65475315, -0.00083495, -0.02724032, -0.75535131, 0.00097853, -0.00979121, 0.02705033, 101.81100464, -40.37772369, 22.62999916, 0.00000000
1, 2.0600, 103, -0.07011165, -0.04825074, -1.05122340, 23.81849861, -8.84264374, 6.22641516, -24.49746513, -9.03065872, -53.00158691, 2.77133060, -2.30037928, -98.08702087, -0.65552878, 0.00069278, -0.03141267, -0.75451624, 0.03182497, 0.00418914, 0.05293101, 101.81100464, -40.37772369, 22.62999916, 0.00000000
1, 2.0800, 104, -0.09534165, -0.06560206, -1.05038905, 29.06024361, -22.56827736, 8.58232498, -23.19216728, -9.76891613, -52.06148529, 3.35334110, -2.77708602, -97.94128418, -0.65650702, 0.00092912, -0.03796626, -0.75336331, 0.05158174, 0.01242917, 0.05276855, 101.81100464, -40.37772369, 22.62999916, 0.00000000
1, 2.1000, 105, -0.07166618, -0.06173864, -1.02478528, 35.85082245, -27.19451141, 7.43903065, -22.72806549, -10.93309212, -51.72791290, 4.07157135, -3.32135010, -97.82872772, -0.65727186, 0.00150649, -0.04579731, -0.75225943, 0.01831734, -0.00265734, 0.02829569, 101.81100464, -40.37772369, 22.62999916, 0.00000000
1, 2.1200, 106, -0.07253945, -0.06539261, -0.98799789, 40.80345917, -23.01069260, 6.75761414, -22.23495102, -12.63676357, -50.21162796, 4.87996483, -3.78525162, -97.72775269, -0.65795439, 0.00313995, -0.05375301, -0.75113034, 0.01032036, -0.01248869, -0.00701311, 101.81100464, -40.37772369, 22.62999916, 0.00000000
1, 2.1400, 107, -0.08364347, -0.07736964, -0.94797289, 36.46844864, -16.37739563, 6.22321129, -21.30674171, -13.46020508, -50.75748825, 5.59329700, -4.10318613, -97.63652039, -0.65855867, 0.00519464, -0.06024205, -0.75009626, 0.01437273, -0.01394887, -0.04543085, 101.81100464, -40.37772369, 22.62999916, 0.00000000
1, 2.1600, 108, -0.10517018, -0.10193285, -0.97721267, 28.75689507, -4.52952051, 2.40854430, -19.76939392, -14.19846344, -49.81739807, 6.15904665, -4.18127632, -97.60983276, -0.65871096, 0.00794824, -0.06438951, -0.74959368, 0.03276749, -0.00035199, -0.01490112, 101.81100464, -40.37772369, 22.62999916, 0.00000000
1, 2.1800, 109, -0.10425077, -0.11015540, -0.99044031, 27.54393196, 1.24476302, -2.98860145, -17.85496140, -16.69717979, -49.11990738, 6.72100496, -4.13402653, -97.67431641, -0.65823400, 0.01145042, -0.06780093, -0.74966657, 0.03141564, -0.00161840, -0.00061768, 101.81100464, -40.37772369, 22.62999916, 0.00000000
1, 2.2000, 110, -0.12726767, -0.13655753, -1.00988472, 33.44173050, 9.10524940, -9.99775600, -17.07178688, -16.81075859, -48.84697342, 7.40978289, -3.93241072, -97.85997009, -0.65689343, 0.01661495, -0.07118081, -0.75043207, 0.05698561, 0.01407064, 0.01991118, 101.81100464, -40.37772369, 22.62999916, 0.00000000
1, 2.2200, 111, -0.14674954, -0.15958577, -0.99157333, 38.38382339, -1.73867369, -9.54702950, -15.99854469, -18.76998138, -47.17906189, 8.19209862, -3.95536304, -98.05061340, -0.65552247, 0.02082110, -0.07646786, -0.75100577, 0.07838816, 0.02421208, 0.00314572, 101.81100464, -40.37772369, 22.62999916, 0.00000000
1, 2.2400, 112, -0.11247479, -0.15735896, -0.96949178, 40.74639511, -7.93376541, -4.03706360, -15.21536541, -19.30947685, -46.14799118, 9.00319862, -4.09431648, -98.14762115, -0.65476722, 0.02447623, -0.08259208, -0.75090581, 0.04222826, 0.00805348, -0.01679417, 101.81100464, -40.37772369, 22.62999916, 0.00000000
1, 2.2600, 113, -0.06535856, -0.15219836, -0.94349748, 31.87825394, 5.26010036, -2.38013172, -13.79404640, -20.78599167, -44.78333664, 9.63005066, -3.93986964, -98.18354797, -0.65433359, 0.02904743, -0.08583135, -0.75075758, -0.00549107, -0.00953551, -0.04078637, 101.81100464, -40.37772369, 22.62999916, 0.00000000
1, 2.2800, 114, -0.07377880, -0.17006983, -0.97143197, 20.53660011, 20.27827072, -1.64459908, -12.92384911, -21.55264473, -44.44975662, 10.04725170, -3.53880072, -98.15896606, -0.65422750, 0.03408815, -0.08628240, -0.75058627, 0.00860291, -0.00052716, -0.01174804, 101.81100464, -40.37772369, 22.62999916, 0.00000000
1, 2.3000, 115, -0.07980543, -0.18602927, -1.00627661, 29.20728111, 14.72484779, -8.51825809, -11.38650036, -22.54645348, -44.26780701, 10.64151382, -3.21385455, -98.28385162, -0.65307957, 0.03952176, -0.08837407, -0.75107598, 0.02096193, 0.00688533, 0.02421950, 101.81100464, -40.37772369, 22.62999916, 0.00000000
1, 2.3200, 116, -0.06227643, -0.18141519, -0.97785634, 37.81476974, 11.30976486, -6.41984892, -10.37127399, -24.30691338, -42.87281799, 11.39504528, -2.97203135, -98.36195374, -0.65217257, 0.04534406, -0.09197304, -0.75110310, 0.00847815, -0.00933982, -0.00229961, 101.81100464, -40.37772369, 22.62999916, 0.00000000
1, 2.3400, 117, -0.06612158, -0.19151364, -0.96374857, 21.43038368, 7.54308558, -2.83877325, -9.53008270, -25.15874863, -42.59989166, 11.82205677, -2.83730173, -98.39665222, -0.65169942, 0.04863227, -0.09402414, -0.75105417, 0.01592917, -0.00964386, -0.01452176, 101.81100464, -40.37772369, 22.62999916, 0.00000000
1, 2.3600, 118, -0.04548558, -0.19238608, -0.94822145, 22.29790115, -0.24627031, -5.62889099, -8.94995117, -26.03898048, -42.20566177, 12.27084637, -2.77629375, -98.52475739, -0.65062970, 0.05147767, -0.09667771, -0.75145489, -0.00404896, -0.01595996, -0.02857672, 101.81100464, -40.37772369, 22.62999916, 0.00000000
1, 2.3800, 119, -0.06756321, -0.20822507, -0.93680996, 24.22995758, 14.42195511, -8.02455235, -7.99273491, -26.26613426, -41.47784042, 12.75176907, -2.45676994, -98.61754608, -0.64960611, 0.05623216, -0.09807356, -0.75181884, 0.02180083, -0.00832099, -0.03838598, 101.81100464, -40.37772369, 22.62999916, 0.00000000
1, 2.4000, 120, -0.09311523, -0.23487495, -0.97581369, 15.87789345, 14.96455479, -6.77924681, -7.12253714, -26.03898048, -41.50817108, 13.05612373, -2.13557458, -98.69808197, -0.64872068, 0.06000350, -0.09830183, -0.75226188, 0.05322281, 0.01140647, 0.00192119, 101.81100464, -40.37772369, 22.62999916, 0.00000000
1, 2.4200, 121, -0.08014148, -0.23974825, -0.98432022, 8.45793056, -1.38759875, -2.31040788, -6.80346775, -26.60687065, -40.14351654, 13.22614002, -2.16475224, -98.74983978, -0.64831042, 0.06072872, -0.09960958, -0.75238538, 0.04304275, 0.01250986, 0.01118829, 101.81100464, -40.37772369, 22.62999916, 0.00000000
1, 2.4400, 122, -0.05448829, -0.23024847, -0.97816050, 8.90538120, -7.17301273, -2.41475081, -6.54240894, -26.35132027, -39.87057877, 13.40873528, -2.29238153, -98.82962036, -0.64777362, 0.06084993, -0.10156889, -0.75257587, 0.01558164, 0.00012177, 0.00577839, 101.81100464, -40.37772369, 22.62999916, 0.00000000
1, 2.4600, 123, -0.06125116, -0.23051317, -0.96055710, 8.56725693, -5.29724503, 0.62083489, -5.93326998, -28.48090935, -38.35430527, 13.56436253, -2.37571383, -98.87633514, -0.64743924, 0.06113816, -0.10308418, -0.75263429, 0.02054351, -0.00256872, -0.01104734, 101.81100464, -40.37772369, 22.62999916, 0.00000000
1, 2.4800, 124, -0.06431623, -0.23012918, -0.94851583, 5.84580803, -3.83507848, 3.76081014, -5.78823662, -27.62907219, -38.08136749, 13.67730713, -2.46479750, -98.81718445, -0.64782679, 0.06124259, -0.10429468, -0.75212538, 0.02200689, -0.00523188, -0.02247068, 101.81100464, -40.37772369, 22.62999916, 0.00000000
1, 2.5000, 125, -0.05993441, -0.23341052, -0.98874360, 5.37420464, -2.01092052, 3.80202579, -5.20810509, -27.99820137, -38.32397461, 13.76401806, -2.47926688, -98.80975342, -0.64783877, 0.06164420, -0.10494108, -0.75199234, 0.01637730, -0.00364136, 0.01822374, 101.81100464, -40.37772369, 22.62999916, 0.00000000
1, 2.5200, 126, -0.04813144, -0.23204011, -0.99240083, 9.74014282, 5.29914188, 1.26055014, -4.86002827, -28.31054115, -37.83876419, 13.96179867, -2.37617469, -98.75919342, -0.64799231, 0.06348828, -0.10563165, -0.75160974, 0.00553010, -0.00720767, 0.02237778, 101.81100464, -40.37772369, 22.62999916, 0.00000000
1, 2.5400, 127, -0.07641175, -0.24552064, -0.99457777, 13.95931244, 4.54573488, 2.33508492, -4.88903522, -29.13398361, -37.53550720, 14.24286842, -2.30806994, -98.69339752, -0.64821792, 0.06558748, -0.10705450, -0.75103343, 0.03580596, 0.00219280, 0.02548488, 101.81100464, -40.37772369, 22.62999916, 0.00000000
1, 2.5600, 128, -0.08447592, -0.25186092, -0.97628486, 17.58910179, 0.75824690, 1.43441391, -3.90281200, -28.65127563, -36.35280991, 14.58187962, -2.29459119, -98.69725037, -0.64798594, 0.06758992, -0.10920242, -0.75074673, 0.04444418, 0.00321018, 0.00852045, 101.81100464, -40.37772369, 22.62999916, 0.00000000
1, 2.5800, 129, -0.08046161, -0.25900409, -0.96987206, 14.85756779, -3.69111252, 1.95275033, -3.43870568, -28.45251465, -35.92824936, 14.87121010, -2.37624311, -98.67523193, -0.64801800, 0.06871005, -0.11154318, -0.75027311, 0.03974683, 0.00482068, 0.00357429, 101.81100464, -40.37772369, 22.62999916, 0.00000000
1, 2.6000, 130, -0.05258163, -0.25808072, -0.99031079, 14.37305832, -2.56383300, 3.04263902, -3.43870568, -29.19077110, -35.07913208, 15.15425205, -2.43136764, -98.65669250, -0.64800924, 0.06996635, -0.11369434, -0.74984157, 0.01060065, -0.00060278, 0.02526226, 101.81100464, -40.37772369, 22.62999916, 0.00000000
1, 2.6200, 131, -0.06358114, -0.26384169, -0.96851867, 19.82750893, -6.21483135, 4.38236141, -2.97460318, -29.44632339, -34.56359100, 15.55413437, -2.58072019, -98.60777283, -0.64819628, 0.07129550, -0.11711837, -0.74902731, 0.02002810, -0.00050532, 0.00507677, 101.81100464, -40.37772369, 22.62999916, 0.00000000
1, 2.6400, 132, -0.06681350, -0.26445165, -0.92211878, 19.77398491, -8.84295750, 4.39096642, -2.62652254, -29.50311089, -34.32098770, 15.93929672, -2.77287364, -98.56807709, -0.64836317, 0.07225335, -0.12068871, -0.74822390, 0.02007560, -0.00683134, -0.03924351, 101.81100464, -40.37772369, 22.62999916, 0.00000000
1, 2.6600, 133, -0.05528927, -0.26305324, -0.94143265, 4.81300402, 0.94620889, 8.89316559, -2.27844548, -29.98582077, -32.74406052, 16.03371811, -2.75303268, -98.41955566, -0.64925694, 0.07307486, -0.12109920, -0.74730217, 0.00638848, -0.01249731, -0.01860922, 101.81100464, -40.37772369, 22.62999916, 0.00000000
1, 2.6800, 134, -0.06520545, -0.27236962, -0.96613103, 14.97356606, 3.85425663, 1.45593452, -1.81433928, -30.44013023, -32.71372986, 16.33366966, -2.69025564, -98.37642670, -0.64929408, 0.07523192, -0.12267384, -0.74679893, 0.01794716, -0.00605292, 0.00683655, 101.81100464, -40.37772369, 22.62999916, 0.00000000
1, 2.7000, 135, -0.08143621, -0.28042194, -0.93680751, 16.93436432, 5.08767128, -0.33951408, -2.10440516, -29.92902946, -31.10646820, 16.65776062, -2.57016754, -98.38327789, -0.64893472, 0.07784741, -0.12411524, -0.74660498, 0.03524472, -0.00335822, -0.02096737, 101.81100464, -40.37772369, 22.62999916, 0.00000000
1, 2.7200, 136, -0.08315312, -0.28664070, -0.92378366, -4.56877804, 31.86733818, 1.20254743, -1.64029896, -30.07100296, -31.40972519, 16.56153870, -1.96096206, -98.19085693, -0.64974231, 0.08149505, -0.11992557, -0.74619794, 0.04307552, 0.00128626, -0.03379510, 101.81100464, -40.37772369, 22.62999916, 0.00000000
1, 2.7400, 137, -0.08414462, -0.30706340, -0.99271983, -2.55362940, 25.03083992, -8.52942944, -0.97314876, -30.21297455, -30.83354187, 16.52719116, -1.43955684, -98.22234344, -0.64911109, 0.08467747, -0.11678435, -0.74689090, 0.05478725, 0.02312961, 0.03432803, 101.81100464, -40.37772369, 22.62999916, 0.00000000
1, 2.7600, 138, -0.04288120, -0.29060927, -0.98077554, 6.72587299, 23.19845390, -12.99006557, -0.39301687, -30.24137115, -29.89344978, 16.66287804, -0.91097242, -98.35766602, -0.64765286, 0.08876519, -0.11479128, -0.74799037, 0.02229273, 0.00519836, 0.02259455, 101.81100464, -40.37772369, 22.62999916, 0.00000000
1, 2.7800, 139, -0.04864983, -0.29575562, -0.96760231, 8.49064064, 21.00524521, -9.90440178, 0.24512595, -30.15618515, -30.86386490, 16.82853317, -0.46163115, -98.42387390, -0.64667243, 0.09257350, -0.11339288, -0.74859005, 0.03695618, 0.00756511, 0.01010290, 101.81100464, -40.37772369, 22.62999916, 0.00000000
1, 2.8000, 140, -0.04759892, -0.29468101, -0.93485856, 4.32468939, 14.75311470, -8.37783051, 0.68022490, -31.97343636, -30.46963310, 16.89840508, -0.12749672, -98.54132080, -0.64552855, 0.09503745, -0.11206345, -0.74946821, 0.04256194, 0.00436643, -0.02205840, 101.81100464, -40.37772369, 22.62999916, 0.00000000
1, 2.8200, 141, -0.01224959, -0.28502297, -0.93934596, 1.59970307, 9.23901367, -8.43404675, 0.94128346, -30.83765411, -29.28693581, 16.93173027, 0.10518757, -98.64862823, -0.64457220, 0.09664321, -0.11106151, -0.75023472, 0.01194533, -0.00593243, -0.01739019, 101.81100464, -40.37772369, 22.62999916, 0.00000000
1, 2.8400, 142, -0.01599146, -0.28590897, -0.95833796, 2.88039804, 12.25356102, -7.53042030, 1.26035678, -31.20678139, -28.34684181, 16.98877144, 0.37923208, -98.71676636, -0.64380652, 0.09869204, -0.10995147, -0.75078875, 0.02033546, -0.00578855, 0.00183796, 101.81100464, -40.37772369, 22.62999916, 0.00000000
1, 2.8600, 143, -0.03145951, -0.29376560, -0.96946353, 3.63228536, 9.32873821, -4.06736565, 1.37638235, -30.92284012, -28.43781662, 17.04473305, 0.58570427, -98.78866577, -0.64307946, 0.10028929, -0.10921960, -0.75130683, 0.04011519, 0.00119228, 0.01326011, 101.81100464, -40.37772369, 22.62999916, 0.00000000
1, 2.8800, 144, -0.01601276, -0.29656208, -0.95487505, 4.02002954, 4.70677519, -3.14573503, 2.07254004, -30.72407532, -27.67967606, 17.12498474, 0.69603741, -98.82457733, -0.64266133, 0.10142772, -0.10915723, -0.75152093, 0.02717264, 0.00279838, -0.00093765, 101.81100464, -40.37772369, 22.62999916, 0.00000000
1, 2.9000, 145, -0.00823019, -0.29754359, -0.94530380, 4.99269676, 7.40843725, -6.80244398, 2.30459118, -30.89444351, -27.07316208, 17.20942879, 0.90071207, -98.95044708, -0.64154953, 0.10312188, -0.10867399, -0.75230992, 0.02178309, 0.00229234, -0.01001929, 101.81100464, -40.37772369, 22.62999916, 0.00000000
1, 2.9200, 146, -0.01929617, -0.30201316, -0.95949167, 3.52920079, 14.60200024, -9.19619942, 2.21757293, -31.03641701, -27.01250839, 17.27797318, 1.23395753, -99.03758240, -0.64056581, 0.10560673, -0.10733311, -0.75299549, 0.03782084, 0.00559173, 0.00461534, 101.81100464, -40.37772369, 22.62999916, 0.00000000
1, 2.9400, 147, -0.01621920, -0.31152302, -0.98398685, 4.90152407, 12.52245331, -7.69575644, 2.88472319, -31.00802231, -26.13306808, 17.37789536, 1.51607394, -99.11224365, -0.63968086, 0.10794398, -0.10647682, -0.75353783, 0.04031181, 0.01386674, 0.02961864, 101.81100464, -40.37772369, 22.62999916, 0.00000000
1, 2.9600, 148, 0.00766690, -0.30850753, -0.98584551, 8.04385471, 8.79737282, -8.32880211, 3.20379257, -31.34875488, -25.61753082, 17.52611351, 1.74043953, -99.25591278, -0.63835061, 0.11010784, -0.10633109, -0.75437301, 0.02094175, 0.00885599, 0.03222655, 101.81100464, -40.37772369, 22.62999916, 0.00000000
1, 2.9800, 149, 0.01504692, -0.30050239, -0.96001327, 9.40641499, 7.56364536, -7.76079893, 3.00074863, -30.95123291, -25.46590233, 17.70969200, 1.93606436, -99.35750580, -0.63728666, 0.11231815, -0.10654342, -0.75491649, 0.01689601, -0.00204012, 0.00741346, 101.81100464, -40.37772369, 22.62999916, 0.00000000
1, 3.0000, 150, 0.02279878, -0.29871705, -0.95830476, 8.68773270, 8.90641975, -7.36148977, 3.72591352, -31.80306816, -25.16264534, 17.86684418, 2.16074777, -99.48258972, -0.63605309, 0.11454894, -0.10644642, -0.75563502, 0.01290042, -0.00670486, 0.00675781, 101.81100464, -40.37772369, 22.62999916, 0.00000000
1, 3.0200, 151, 0.00673596, -0.31363863, -0.98393768, 11.73711300, 5.55801535, -5.36857319, 4.39306402, -32.05861664, -24.58646202, 18.10704231, 2.28862119, -99.55295563, -0.63519967, 0.11665461, -0.10738713, -0.75589752, 0.03234820, 0.00525845, 0.03347853, 101.81100464, -40.37772369, 22.62999916, 0.00000000
1, 3.0400, 152, 0.00937852, -0.31977853, -0.97281295, 16.50487900, -0.91957617, -4.71424866, 4.16100883, -32.96724701, -24.28320503, 18.43392563, 2.29372454, -99.64562225, -0.63424712, 0.11841097, -0.10961024, -0.75610524, 0.03074551, 0.00656740, 0.02397852, 101.81100464, -40.37772369, 22.62999916, 0.00000000
1, 3.0600, 153, 0.03189015, -0.30929554, -0.92917949, 16.15286636, -3.10445428, -1.23100877, 3.46485114, -30.69568062, -23.46440887, 18.73676491, 2.26322579, -99.73619843, -0.63337082, 0.11979828, -0.11187283, -0.75628984, 0.00782367, -0.00916359, -0.01792392, 101.81100464, -40.37772369, 22.62999916, 0.00000000
1, 3.0800, 154, 0.04467493, -0.30464971, -0.93635839, 16.66715050, 4.20798826, -1.79383826, 4.36405659, -30.83765411, -22.43334007, 19.07353401, 2.36827230, -99.73873901, -0.63287139, 0.12234571, -0.11351277, -0.75605565, -0.00470096, -0.01900825, -0.00896980, 101.81100464, -40.37772369, 22.62999916, 0.00000000
1, 3.1000, 155, 0.00545047, -0.33281681, -0.97516865, 19.65127182, 7.79522848, -1.23526847, 4.13200521, -30.35494804, -21.94812393, 19.45714378, 2.51948237, -99.75054932, -0.63219208, 0.12544288, -0.11521436, -0.75585914, 0.03743107, 0.00315259, 0.03204662, 101.81100464, -40.37772369, 22.62999916, 0.00000000
1, 3.1200, 156, 0.01030667, -0.33835092, -0.92445505, 20.50227356, 0.45328626, 0.01046799, 4.74114084, -31.14999390, -21.12933731, 19.86248398, 2.52098083, -99.75425720, -0.63171798, 0.12768431, -0.11788309, -0.75546849, 0.03382844, 0.00216755, -0.01630508, 101.81100464, -40.37772369, 22.62999916, 0.00000000
1, 3.1400, 157, 0.02304636, -0.33623952, -0.89292645, 16.55255699, -1.74496710, -2.86936188, 4.39306402, -32.25738144, -20.97770882, 20.18876457, 2.51703405, -99.81961060, -0.63092625, 0.12938817, -0.12012944, -0.75548643, 0.02064935, -0.00592964, -0.04569428, 101.81100464, -40.37772369, 22.62999916, 0.00000000
1, 3.1600, 158, 0.01585080, -0.35025191, -0.92484671, 15.33608532, 8.37807369, -3.41669106, 4.24803066, -31.66109467, -21.31128883, 20.48575401, 2.70649433, -99.86151886, -0.63006371, 0.13221872, -0.12108279, -0.75556391, 0.02964374, 0.00313725, -0.01187060, 101.81100464, -40.37772369, 22.62999916, 0.00000000
1, 3.1800, 159, 0.02658324, -0.31798273, -0.94871020, 16.02702332, 4.45688534, 5.82063961, 4.91518116, -31.71788597, -20.64412117, 20.68404579, 2.75232196, -99.66162109, -0.63108981, 0.13382155, -0.12190230, -0.75429255, 0.02113037, -0.03460909, 0.01415164, 101.81100464, -40.37772369, 22.62999916, 0.00000000
1, 3.2000, 160, -0.01132097, -0.39255738, -0.95879340, 13.10010719, 4.19380379, 20.01708984, 5.00219917, -31.46233559, -19.67370605, 20.96244240, 2.65622640, -99.32123566, -0.63312858, 0.13509527, -0.12386822, -0.75203341, 0.05928694, 0.03785335, 0.02504787, 101.81100464, -40.37772369, 22.62999916, 0.00000000
1, 3.2200, 161, 0.01381711, -0.36364874, -0.94340348, 19.19222450, -13.15097141, 6.64957142, 4.48008204, -30.97962570, -19.15816689, 21.34866333, 2.38513184, -99.29129028, -0.63323307, 0.13549648, -0.12787864, -0.75120157, 0.02963311, 0.00311054, 0.01167389, 101.81100464, -40.37772369, 22.62999916, 0.00000000
1, 3.2400, 162, -0.00335708, -0.37005663, -0.97158438, 20.00878525, -5.68456125, 1.72750580, 4.45107460, -31.03641701, -18.82458878, 21.74992943, 2.26361609, -99.30432892, -0.63283539, 0.13690731, -0.13120118, -0.75070781, 0.04397326, 0.00308916, 0.04223953, 101.81100464, -40.37772369, 22.62999916, 0.00000000
1, 3.2600, 163, -0.01679230, -0.38568461, -0.94427729, 20.41278648, -8.35562325, 1.18231714, 4.39306402, -31.77467346, -19.00653839, 22.13982201, 2.10357571, -99.38500214, -0.63205886, 0.13792378, -0.13474290, -0.75054842, 0.05493033, 0.01218867, 0.01743167, 101.81100464, -40.37772369, 22.62999916, 0.00000000
1, 3.2800, 164, 0.01593122, -0.37120649, -0.90140337, 16.51611900, -7.50785637, 0.13723890, 4.74114084, -31.00802231, -18.36970329, 22.46117401, 1.97458231, -99.43554688, -0.63151860, 0.13879572, -0.13762550, -0.75031948, 0.01942622, -0.00818390, -0.02315627, 101.81100464, -40.37772369, 22.62999916, 0.00000000
1, 3.3000, 165, 0.02606312, -0.37697157, -0.88383549, 9.98651981, 3.17313528, -0.09001608, 4.50908947, -31.09320831, -17.70253563, 22.63405609, 2.06094575, -99.47758484, -0.63091195, 0.14025956, -0.13832907, -0.75042814, 0.00866578, -0.00662487, -0.03901159, 101.81100464, -40.37772369, 22.62999916, 0.00000000
1, 3.3200, 166, 0.01720594, -0.39414603, -0.92175674, 7.15332365, 3.07112956, 4.06010771, 3.95796490, -31.51912308, -17.55090714, 22.78428650, 2.05611300, -99.37426758, -0.63141054, 0.14118069, -0.13921236, -0.74967235, 0.01940671, 0.00840174, -0.00012203, 101.81100464, -40.37772369, 22.62999916, 0.00000000
1, 3.3400, 167, 0.02639416, -0.39939585, -0.96242422, 11.80380535, -18.44620323, 16.19736481, 3.78392458, -30.83765411, -16.58049202, 23.03415871, 1.57579291, -99.21701813, -0.63280845, 0.13963117, -0.14332224, -0.74800766, 0.00584162, 0.01053345, 0.04169573, 101.81100464, -40.37772369, 22.62999916, 0.00000000
1, 3.3600, 168, 0.02429499, -0.39802715, -0.99800342, 19.83963203, -21.72055244, 19.40095901, 3.98697209, -31.71788597, -16.39853287, 23.43074799, 1.04089999, -99.04949951, -0.63416833, 0.13856402, -0.14867754, -0.74600643, -0.00168125, 0.00386325, 0.07924613, 101.81100464, -40.37772369, 22.62999916, 0.00000000
1, 3.3800, 169, -0.00942244, -0.41581148, -0.96538067, 21.18968201, -14.65440273, 17.97213173, 3.92895746, -32.74008560, -16.51983833, 23.85709572, 0.63104731, -98.83382416, -0.63562834, 0.13855325, -0.15346715, -0.74379259, 0.02392221, 0.01475330, 0.04944641, 101.81100464, -40.37772369, 22.62999916, 0.00000000
1, 3.4000, 170, -0.03123109, -0.43631020, -0.97646540, 22.50023842, -13.63974285, 18.37676239, 3.23280001, -32.22898483, -16.15592957, 24.30874062, 0.22477536, -98.63319397, -0.63695198, 0.13870454, -0.15841176, -0.74159223, 0.03885906, 0.02832286, 0.06351344, 101.81100464, -40.37772369, 22.62999916, 0.00000000
1, 3.4200, 171, -0.00304129, -0.43488804, -0.98758376, 31.83953667, -29.07587242, 19.24682236, 3.23280001, -31.34875488, -15.64039040, 24.95310211, -0.47608522, -98.53220367, -0.63781148, 0.13790122, -0.16634955, -0.73926157, 0.00129761, 0.01840535, 0.07845168, 101.81100464, -40.37772369, 22.62999916, 0.00000000
1, 3.4400, 172, 0.02783720, -0.42750993, -0.90681422, 34.38930893, -33.32732010, 19.74802017, 2.68167543, -30.89444351, -15.39778709, 25.63415527, -1.24512219, -98.45789337, -0.63855463, 0.13683717, -0.17491315, -0.73683721, -0.04290471, 0.00022076, 0.00283589, 101.81100464, -40.37772369, 22.62999916, 0.00000000
1, 3.4600, 173, -0.08775981, -0.45243859, -0.92682540, 31.87983322, -34.91715240, 20.35520935, 2.62366438, -31.23517609, -14.76095104, 26.26777840, -2.05644655, -98.41841888, -0.63919473, 0.13519280, -0.18342277, -0.73451287, 0.05917204, 0.01503482, 0.02802579, 101.81100464, -40.37772369, 22.62999916, 0.00000000
1, 3.4800, 174, -0.12999856, -0.46328387, -0.93349141, 34.99556351, -39.41864777, 14.57136536, 2.01452518, -30.80925941, -13.24466610, 26.97530556, -2.87739921, -98.51974487, -0.63886696, 0.13366988, -0.19259562, -0.73272669, 0.08667304, 0.01573774, 0.04029343, 101.81100464, -40.37772369, 22.62999916, 0.00000000
1, 3.5000, 175, -0.06712574, -0.44152090, -0.82931590, 31.80761719, -24.53745842, 2.02817321, 1.92750692, -31.20678139, -12.09229183, 27.59361267, -3.29131889, -98.73473358, -0.63735449, 0.13406980, -0.19906926, -0.73224038, 0.01235534, -0.01665368, -0.05785108, 101.81100464, -40.37772369, 22.62999916, 0.00000000
1, 3.5200, 176, -0.10776767, -0.48542044, -0.91970330, 21.93994331, -9.90522194, -1.53808141, 1.26035678, -32.00182724, -12.15294456, 28.03835678, -3.47262979, -98.85742950, -0.63630742, 0.13515326, -0.20304514, -0.73186010, 0.04905679, 0.01950698, 0.03682527, 101.81100464, -40.37772369, 22.62999916, 0.00000000
1, 3.5400, 177, -0.11390711, -0.47920734, -0.89532357, 23.98778534, -24.32530022, 2.82433438, 1.55041897, -31.63269997, -11.78903484, 28.53031731, -3.91338897, -99.03502655, -0.63523018, 0.13471037, -0.20879433, -0.73125964, 0.04931633, 0.00641952, 0.01652281, 101.81100464, -40.37772369, 22.62999916, 0.00000000
1, 3.5600, 178, -0.05769936, -0.46865451, -0.83627701, 21.20594978, -12.44413853, 2.89595747, 2.04353261, -31.06480980, -11.33414936, 28.94151497, -4.13278770, -99.12956238, -0.63446158, 0.13539343, -0.21271887, -0.73066950, -0.01274553, -0.01108424, -0.03829963, 101.81100464, -40.37772369, 22.62999916, 0.00000000
1, 3.5800, 179, -0.09049714, -0.48331580, -0.86430061, 17.38297844, 1.62098217, 2.01244164, 1.28936040, -30.95123291, -11.24317360, 29.28129005, -4.12011719, -99.07472992, -0.63438785, 0.13745886, -0.21475008, -0.72975314, 0.01831360, -0.00203698, -0.00703176, 101.81100464, -40.37772369, 22.62999916, 0.00000000
1, 3.6000, 180, -0.12931027, -0.50467443, -0.92371231, -19.78357124, 36.26911163, -3.64042187, 1.57942629, -31.14999390, -11.36448002, 28.94967842, -3.51378679, -98.86722565, -0.63521129, 0.13992564, -0.20909496, -0.73021013, 0.06238180, 0.01963085, 0.05180200, 101.81100464, -40.37772369, 22.62999916, 0.00000000
1, 3.6200, 181, -0.05673649, -0.47218445, -0.81173533, 8.53912067, 9.51131439, -8.06510448, 0.94128346, -31.29196739, -11.48577785, 29.08343697, -3.19728923, -98.89165497, -0.63441616, 0.14266589, -0.20825510, -0.73061103, -0.00329518, -0.01263623, -0.06081429, 101.81100464, -40.37772369, 22.62999916, 0.00000000
1, 3.6400, 182, -0.09943983, -0.49533007, -0.85529023, 4.89208221, 32.86454773, -15.03661633, 0.99929440, -31.09320831, -11.54643059, 29.17222023, -2.49614763, -98.82788849, -0.63363767, 0.14779395, -0.20491926, -0.73121029, 0.05048101, 0.00923275, -0.01723666, 101.81100464, -40.37772369, 22.62999916, 0.00000000
1, 3.6600, 183, -0.11369459, -0.50342482, -0.84384114, 1.90532255, 29.37640190, -7.02522707, 1.28936040, -30.92284012, -10.48503113, 29.20134926, -1.93409789, -98.71093750, -0.63346773, 0.15178056, -0.20188108, -0.73138595, 0.07529290, 0.01627519, -0.02862895, 101.81100464, -40.37772369, 22.62999916, 0.00000000
1, 3.6800, 184, -0.07962111, -0.49714121, -0.88148648, 8.17101765, 14.59128666, -7.32026482, 0.97029084, -30.66728783, -10.81861877, 29.37268448, -1.59613609, -98.70124054, -0.63276333, 0.15491651, -0.20111199, -0.73155004, 0.04870092, 0.00841809, 0.00959700, 101.81100464, -40.37772369, 22.62999916, 0.00000000
1, 3.7000, 185, -0.03347700, -0.48687422, -0.89278710, 15.80094337, 17.43185043, -14.39712524, 0.62221014, -31.17839050, -11.51610851, 29.69454384, -1.14225364, -98.80625916, -0.63091469, 0.15942170, -0.20082742, -0.73225665, 0.00955955, -0.00568848, 0.02284222, 101.81100464, -40.37772369, 22.62999916, 0.00000000
1, 3.7200, 186, -0.03937634, -0.50681657, -0.85822350, 23.18086243, 20.30857277, -22.90620422, 1.08631647, -32.48453522, -10.51536179, 30.16134071, -0.56119370, -99.00432587, -0.62801528, 0.16536729, -0.20091628, -0.73340517, 0.02439924, 0.00799450, -0.00834525, 101.81100464, -40.37772369, 22.62999916, 0.00000000
1, 3.7400, 187, -0.04788205, -0.52387798, -0.80387986, 21.03121948, 23.22255325, -25.98288536, 1.34737504, -31.37714958, -11.27350426, 30.57769585, 0.11279385, -99.22011566, -0.62485546, 0.17158753, -0.20022100, -0.73486394, 0.04363496, 0.01816626, -0.05880531, 101.81100464, -40.37772369, 22.62999916, 0.00000000
1, 3.7600, 188, -0.06826001, -0.56124872, -0.89185584, 20.18006706, 20.24433708, -28.84398460, 1.23134947, -31.32036209, -10.45470905, 30.99328804, 0.71069020, -99.54102325, -0.62109470, 0.17711912, -0.20011981, -0.73676479, 0.07629431, 0.04977921, 0.03259835, 101.81100464, -40.37772369, 22.62999916, 0.00000000
1, 3.7800, 189, -0.09949931, -0.59189850, -0.97846371, 37.22819901, -24.85406494, -18.31773186, 1.49240804, -32.82527161, -10.27275848, 31.75232697, 0.43148777, -100.12554932, -0.61666703, 0.17838646, -0.20742433, -0.73815662, 0.11075203, 0.07190321, 0.12437631, 101.81100464, -40.37772369, 22.62999916, 0.00000000
1, 3.8000, 190, -0.02543751, -0.55624813, -0.88699418, 46.60255432, -51.02820587, -10.52734375, 0.82525784, -31.91664505, -9.81787300, 32.67889404, -0.31743819, -100.86018372, -0.61188984, 0.17716119, -0.21855308, -0.73921531, 0.02660559, 0.02316936, 0.04094591, 101.81100464, -40.37772369, 22.62999916, 0.00000000
1, 3.8200, 191, 0.01120041, -0.54010171, -0.80390435, 42.40325928, -47.65736008, -6.19766378, 0.85426140, -32.08701324, -9.39330959, 33.52824020, -1.04435313, -101.47483826, -0.60798866, 0.17577776, -0.22883296, -0.73965359, -0.02322056, -0.00614360, -0.03362049, 101.81100464, -40.37772369, 22.62999916, 0.00000000
1, 3.8400, 192, -0.01688964, -0.55636340, -0.79227746, 39.06088257, -43.38807678, -1.55141306, 1.02830172, -32.28577423, -8.57452297, 34.31643677, -1.74783027, -101.98037720, -0.60486543, 0.17435032, -0.23838151, -0.73953640, -0.00743535, -0.00159514, -0.03722183, 101.81100464, -40.37772369, 22.62999916, 0.00000000
1, 3.8600, 193, -0.04455297, -0.57113940, -0.82664019, 34.21718597, -35.55806732, -3.86732888, 0.73823577, -32.17219543, -8.72614288, 35.00991058, -2.26370430, -102.46654510, -0.60167104, 0.17361379, -0.24627504, -0.73972899, 0.00899323, 0.00270389, 0.00468955, 101.81100464, -40.37772369, 22.62999916, 0.00000000
1, 3.8800, 194, -0.03427221, -0.57874089, -0.91025299, 36.77096939, -27.87676430, -8.45746136, 0.56419927, -32.31417084, -7.17953634, 35.77349854, -2.61815667, -102.92807007, -0.59822720, 0.17429133, -0.25372973, -0.73984319, -0.00840232, 0.00030511, 0.09565027, 101.81100464, -40.37772369, 22.62999916, 0.00000000
1, 3.9000, 195, -0.04763142, -0.58694100, -0.87140507, 44.12792206, -27.74752235, -8.26963520, 0.12910032, -32.39935303, -7.02790785, 36.67411423, -2.96369982, -103.40367126, -0.59447265, 0.17564890, -0.26203245, -0.73965454, -0.00112164, -0.00325105, 0.06562688, 101.81100464, -40.37772369, 22.62999916, 0.00000000
1, 3.9200, 196, -0.03243517, -0.58080906, -0.80990672, 46.85353851, -26.52272797, -8.21270180, -0.18997298, -32.25738144, -6.72465086, 37.62933731, -3.27160549, -103.84381866, -0.59079009, 0.17755084, -0.27043012, -0.73912811, -0.02227651, -0.02229943, 0.01413837, 101.81100464, -40.37772369, 22.62999916, 0.00000000
1, 3.9400, 197, -0.07849476, -0.59863162, -0.74988055, 39.44420242, -4.60923338, -4.27171326, -0.30599862, -32.71169281, -6.14846754, 38.40977478, -3.28132677, -103.93986511, -0.58896959, 0.18127580, -0.27565849, -0.73774409, 0.02093566, -0.01659760, -0.03635638, 101.81100464, -40.37772369, 22.62999916, 0.00000000
1, 3.9600, 198, -0.08339033, -0.62630332, -0.83745378, 33.52581406, 7.01591587, 4.73556995, 0.07108562, -32.71169281, -5.23869658, 39.06340027, -3.25079942, -103.80814362, -0.58870620, 0.18515296, -0.27949679, -0.73554397, 0.02687759, 0.00169138, 0.05857088, 101.81100464, -40.37772369, 22.62999916, 0.00000000
1, 3.9800, 199, -0.09955562, -0.63801992, -0.82252342, 40.73435593, -6.54124784, 8.98433113, -0.74109757, -32.96724701, -5.57227612, 39.87916565, -3.45006752, -103.75750732, -0.58813411, 0.18816878, -0.28563729, -0.73287249, 0.04087559, 0.00357868, 0.05179184, 101.81100464, -40.37772369, 22.62999916, 0.00000000
1, 4.0000, 200, 0.00085881, -0.51686895, -0.66506517, 41.07227707, -36.77230453, 50.78076553, -1.26321471, -33.70550156, -5.42065573, 40.64776993, -4.84465933, -103.48911285, -0.59163058, 0.18373883, -0.29703718, -0.72662389, -0.06687029, -0.12827437, -0.09610223, 101.81100464, -40.37772369, 22.62999916, 0.00000000
1, 4.0200, 201, -0.22132462, -0.73399794, -0.86228997, 31.50037575, -29.03141785, 25.07302856, -2.82957006, -33.22279358, -4.51088476, 41.31879807, -5.53537512, -103.49237823, -0.59203404, 0.18270755, -0.30470517, -0.72337300, 0.12723258, 0.08206183, 0.10988651, 101.81100464, -40.37772369, 22.62999916, 0.00000000
1, 4.0400, 202, -0.08872876, -0.64499366, -0.80220944, 56.20904160, -18.52187157, -2.18898249, -2.53950429, -33.44995117, -3.90437126, 42.49987793, -5.78503370, -103.80217743, -0.58872908, 0.18633510, -0.31387451, -0.72122133, -0.00981806, -0.01910657, 0.06110740, 101.81100464, -40.37772369, 22.62999916, 0.00000000
1, 4.0600, 203, -0.16970667, -0.67919087, -0.65731364, 63.73563004, -16.30984116, -8.87693405, -3.06162143, -33.08081818, -2.78231907, 43.78046417, -5.87613153, -104.14837646, -0.58464956, 0.19133869, -0.32293680, -0.71922618, 0.06742359, -0.00141790, -0.06813656, 101.81100464, -40.37772369, 22.62999916, 0.00000000
1, 4.0800, 204, -0.13772359, -0.67670745, -0.68216652, 49.97097015, -0.80034393, -5.44696665, -2.45248222, -33.50673676, -3.14622903, 44.78236389, -5.83517551, -104.23208618, -0.58233392, 0.19646724, -0.32915896, -0.71689773, 0.03610637, -0.01798600, -0.02991213, 101.81100464, -40.37772369, 22.62999916, 0.00000000
1, 4.1000, 205, -0.10219001, -0.68637615, -0.77086455, 64.25204468, -24.35394669, 4.67379761, -3.40969825, -33.25119019, -1.59962189, 46.12141037, -6.25594711, -104.53476715, -0.57913995, 0.19965160, -0.34005395, -0.71351206, -0.00257264, -0.02165766, 0.07252826, 101.81100464, -40.37772369, 22.62999916, 0.00000000
1, 4.1200, 206, -0.15544088, -0.71386629, -0.61991268, 72.31646729, -34.30559921, 6.31042576, -3.23566175, -33.44995117, -0.59887576, 47.61661911, -6.82960272, -104.97054291, -0.57522637, 0.20216392, -0.35281324, -0.70976561, 0.04183460, -0.01113728, -0.05936327, 101.81100464, -40.37772369, 22.62999916, 0.00000000
1, 4.1400, 207, -0.09620784, -0.70158273, -0.59477538, 63.43175888, -35.61171341, 0.40983284, -3.98983026, -33.22279358, 0.73545772, 48.94831848, -7.25980186, -105.47616577, -0.57082754, 0.20446779, -0.36394438, -0.70703143, -0.02755675, -0.03937469, -0.06524601, 101.81100464, -40.37772369, 22.62999916, 0.00000000
1, 4.1600, 208, -0.08314393, -0.71577471, -0.74855822, 68.34278107, -12.60900116, -6.27440214, -4.30890369, -32.91045380, 1.19033515, 50.35760880, -7.32835913, -105.72946930, -0.56689727, 0.21020769, -0.37339181, -0.70357579, -0.04334166, -0.03985212, 0.10591214, 101.81100464, -40.37772369, 22.62999916, 0.00000000
1, 4.1800, 209, -0.16174859, -0.75151169, -0.54313219, 74.69345093, 12.67357063, 1.42111766, -3.81578994, -33.10921860, 2.03945279, 51.75968933, -7.19897413, -105.55816650, -0.56497443, 0.21852501, -0.38105878, -0.69845897, 0.03472251, -0.02062424, -0.07946745, 101.81100464, -40.37772369, 22.62999916, 0.00000000
1, 4.2000, 210, -0.18172808, -0.78838545, -0.50247496, 40.40001297, -5.88831520, -14.83294201, -4.10585594, -33.33637238, 3.16150498, 52.58693314, -7.03967810, -105.86591339, -0.56106800, 0.22257571, -0.38596818, -0.69763261, 0.05752312, 0.00443105, -0.10578039, 101.81100464, -40.37772369, 22.62999916, 0.00000000
1, 4.2200, 211, -0.17028573, -0.78432792, -0.45355353, -2.51377726, -32.57142258, 5.50169802, -4.22188520, -33.87586594, 2.85824800, 52.52597427, -7.57721043, -106.34629059, -0.55975342, 0.21721916, -0.38893583, -0.69872802, 0.04481950, -0.00477581, -0.14775026, 101.81100464, -40.37772369, 22.62999916, 0.00000000
1, 4.2400, 212, -0.20339170, -0.79856533, -0.73326802, -11.14639187, -75.87187958, 13.52518749, -4.94704628, -33.44995117, 3.43443942, 52.51719284, -8.74746323, -107.45617676, -0.55622381, 0.20584437, -0.39611289, -0.70095497, 0.06221223, 0.01400048, 0.12952970, 101.81100464, -40.37772369, 22.62999916, 0.00000000
1, 4.2600, 213, -0.16515084, -0.76686209, -0.59016317, 17.28747749, -108.13110352, 0.18104158, -4.97605371, -33.19440079, 3.76801872, 53.14258575, -10.01142120, -109.17329407, -0.54809934, 0.19461404, -0.40838602, -0.70351499, 0.00118414, -0.01906292, -0.00598891, 101.81100464, -40.37772369, 22.62999916, 0.00000000
1, 4.2800, 214, -0.16447796, -0.76215047, -0.52588493, 17.06476402, -55.24912643, -6.83783436, -4.83102083, -33.25119019, 4.25322676, 53.66387939, -10.51067066, -110.10302734, -0.54290390, 0.19048502, -0.41524178, -0.70465952, -0.01503158, -0.02776255, -0.06046350, 101.81100464, -40.37772369, 22.62999916, 0.00000000
1, 4.3000, 215, -0.21025415, -0.79514319, -0.55492616, 35.94985199, -5.53649187, -14.34639263, -4.77300978, -34.81288528, 5.04169941, 54.46193314, -10.30865383, -110.35378265, -0.53944898, 0.19466481, -0.41973186, -0.70350951, 0.02860057, -0.00054002, -0.02289541, 101.81100464, -40.37772369, 22.62999916, 0.00000000
1, 4.3200, 216, -0.18984449, -0.81047642, -0.62304080, 67.21485901, 1.79540837, -22.17036057, -4.62797689, -33.62031937, 5.46625423, 55.87790298, -9.94705677, -110.60857391, -0.53437781, 0.20271996, -0.42736587, -0.70050234, 0.01445294, 0.00286098, 0.06005343, 101.81100464, -40.37772369, 22.62999916, 0.00000000
1, 4.3400, 217, -0.17791672, -0.82770658, -0.51788110, 84.00996399, -10.28605080, -10.29830551, -4.68598747, -33.27958298, 7.13416719, 57.60259628, -9.89928532, -110.88807678, -0.52942508, 0.20998043, -0.43818071, -0.69542426, 0.00579008, 0.00403770, -0.02238328, 101.81100464, -40.37772369, 22.62999916, 0.00000000
1, 4.3600, 218, -0.18916215, -0.84880078, -0.54841119, 77.84407806, -21.50439072, -2.36927938, -4.19287777, -35.40917206, 8.04393768, 59.21997452, -10.08568382, -111.31795502, -0.52441132, 0.21454701, -0.44950166, -0.69058722, 0.01597528, 0.00986514, 0.03251857, 101.81100464, -40.37772369, 22.62999916, 0.00000000
1, 4.3800, 219, -0.15875596, -0.84323817, -0.48999727, 75.17227936, -27.29619789, -5.90881157, -4.83102083, -34.33018494, 8.80207253, 60.82860565, -10.26245594, -111.87665558, -0.51858425, 0.21850954, -0.46091267, -0.68620962, -0.01791852, -0.00932242, -0.00181526, 101.81100464, -40.37772369, 22.62999916, 0.00000000
1, 4.4000, 220, -0.16408199, -0.83201361, -0.42812291, 81.12560272, -38.17487717, -4.83973169, -5.03406858, -32.68330002, 10.43966293, 62.59503937, -10.54753494, -112.59548187, -0.51184863, 0.22168927, -0.47392398, -0.68136704, -0.01642952, -0.03395214, -0.03820413, 101.81100464, -40.37772369, 22.62999916, 0.00000000
1, 4.4200, 221, -0.18660186, -0.87907314, -0.40902221, 76.96520233, -31.57930374, 5.95287704, -4.62797689, -32.68330002, 10.16672802, 64.22233582, -10.93227005, -113.10558319, -0.50697696, 0.22432606, -0.48598740, -0.67562455, 0.00009650, 0.00037890, -0.03036775, 101.81100464, -40.37772369, 22.62999916, 0.00000000
1, 4.4400, 222, -0.18634370, -0.89034438, -0.42788133, 68.45018768, -17.77316475, 8.62429810, -4.71499491, -32.56971741, 11.92561626, 65.62295532, -11.23141956, -113.36791229, -0.50372320, 0.22747386, -0.49582055, -0.66983622, -0.00613418, 0.00142666, 0.01226122, 101.81100464, -40.37772369, 22.62999916, 0.00000000
1, 4.4600, 223, -0.19034040, -0.87455714, -0.45088834, 77.63206482, -19.02015877, 11.50826740, -4.94704628, -32.28577423, 12.65342808, 67.24095917, -11.61263657, -113.66886139, -0.50010234, 0.23082800, -0.50719756, -0.66284746, -0.00709110, -0.02363848, 0.05818823, 101.81100464, -40.37772369, 22.62999916, 0.00000000
1, 4.4800, 224, -0.17498697, -0.88662618, -0.33526176, 89.20737457, -42.32518387, 17.35698891, -5.44015980, -31.71788597, 14.56394482, 69.16493988, -12.27581310, -114.41783905, -0.49434772, 0.23163046, -0.52208608, -0.65528148, -0.03140291, -0.02158028, -0.02872846, 101.81100464, -40.37772369, 22.62999916, 0.00000000
1, 4.5000, 225, -0.19916691, -0.89901400, -0.32672641, 77.63477325, -72.19385529, 15.07684135, -5.32413054, -31.68949127, 14.68525124, 70.98796844, -13.04651070, -115.70557404, -0.48626480, 0.22862981, -0.53763312, -0.64978892, -0.02014194, -0.01815972, -0.00587037, 101.81100464, -40.37772369, 22.62999916, 0.00000000
1, 4.5200, 226, -0.21091069, -0.90134853, -0.25128073, 46.69272232, -76.05733490, 15.60088158, -4.80201340, -31.14999390, 16.29251099, 72.23343658, -13.83113098, -117.08843994, -0.47902706, 0.22237919, -0.54991031, -0.64705431, -0.02128443, -0.02166633, -0.05546367, 101.81100464, -40.37772369, 22.62999916, 0.00000000
1, 4.5400, 227, -0.18724200, -0.89129066, -0.21334812, 36.42831421, -73.99095154, 23.96265411, -4.86002827, -31.00802231, 17.38423347, 73.24134827, -14.72138119, -118.39751434, -0.47323823, 0.21461315, -0.56080586, -0.64458013, -0.05932503, -0.03429670, -0.07380385, 101.81100464, -40.37772369, 22.62999916, 0.00000000
1, 4.5600, 228, -0.19683257, -0.88411635, -0.29027408, 25.53982544, -56.35871887, 26.87410736, -4.77300978, -31.32036209, 17.41455841, 73.98735809, -15.54145908, -119.31904602, -0.46996570, 0.20796245, -0.56909549, -0.64188331, -0.06432105, -0.04207682, 0.01835131, 101.81100464, -40.37772369, 22.62999916, 0.00000000
1, 4.5800, 229, -0.20924774, -0.87536603, -0.29110080, 23.74017715, -38.33277130, 32.15160751, -4.59896946, -30.21297455, 18.35465240, 74.63310242, -16.38930511, -119.94156647, -0.46874657, 0.20213635, -0.57621616, -0.63827306, -0.06540010, -0.05027058, 0.03082168, 101.81100464, -40.37772369, 22.62999916, 0.00000000
1, 4.6000, 230, -0.26946726, -0.89150441, -0.23877373, 28.99765396, -67.89196777, 37.83273315, -4.65698051, -30.09939766, 18.56693459, 75.56935120, -17.46625710, -121.11846161, -0.46497083, 0.19316281, -0.58636928, -0.63455606, -0.02163707, -0.03287298, -0.00769427, 101.81100464, -40.37772369, 22.62999916, 0.00000000
1, 4.6200, 231, -0.30241668, -0.90014857, -0.20190895, 42.91607666, -60.02186584, 33.46485519, -5.23711205, -29.04879951, 20.11354065, 76.75652313, -18.39663315, -122.15965271, -0.46109411, 0.18669128, -0.59703875, -0.62935162, -0.00575725, -0.02351399, -0.02576579, 101.81100464, -40.37772369, 22.62999916, 0.00000000
1, 4.6400, 232, -0.34262294, -0.91892594, -0.19196947, 49.01150131, -27.40788651, 28.44546890, -4.71499491, -29.27595520, 19.59800720, 77.85807800, -19.05078316, -122.53429413, -0.45999318, 0.18501970, -0.60527724, -0.62274671, 0.02105403, -0.00489292, -0.01569167, 101.81100464, -40.37772369, 22.62999916, 0.00000000
1, 4.6600, 233, -0.36872238, -0.92210162, -0.23476140, 48.83966064, 5.94889832, 23.72871971, -5.06307173, -28.11178017, 20.59875298, 78.74841309, -19.49762344, -122.32524872, -0.46156144, 0.18689775, -0.61082304, -0.61556929, 0.03878243, -0.00228061, 0.04334319, 101.81100464, -40.37772369, 22.62999916, 0.00000000
1, 4.6800, 234, -0.36557743, -0.91611457, -0.18599860, 55.57655334, -11.14798355, 22.29934311, -5.90426254, -29.44632339, 21.72080040, 79.91184998, -19.97315788, -122.50810242, -0.46070704, 0.18762201, -0.61845291, -0.60832804, 0.02785984, -0.00877368, 0.01135641, 101.81100464, -40.37772369, 22.62999916, 0.00000000
1, 4.7000, 235, -0.34774005, -0.89876521, -0.07668437, 43.30522156, -21.53079033, 13.89791298, -5.84625149, -27.00439453, 22.56991768, 80.87675476, -20.29830551, -122.90493774, -0.45843098, 0.18731253, -0.62494624, -0.60348761, 0.00309648, -0.02691867, -0.07923818, 101.81100464, -40.37772369, 22.62999916, 0.00000000
1, 4.7200, 236, -0.36082032, -0.90178245, -0.11643773, 31.72422600, 3.27699518, 5.77886868, -5.58519268, -26.69205284, 22.26666069, 81.46793365, -20.39050865, -122.79654694, -0.45842829, 0.18969783, -0.62807751, -0.59948057, 0.01281249, -0.02466379, -0.02702660, 101.81100464, -40.37772369, 22.62999916, 0.00000000
1, 4.7400, 237, -0.41264948, -0.93361956, -0.14063005, 32.56108475, 10.28598022, -0.59211493, -5.96227694, -26.09576797, 22.66089439, 82.05763245, -20.34551239, -122.59272003, -0.45830849, 0.19345440, -0.63071150, -0.59559369, 0.06449975, 0.00590080, 0.00600530, 101.81100464, -40.37772369, 22.62999916, 0.00000000
1, 4.7600, 238, -0.38175610, -0.92112565, -0.07933082, 36.97278595, 9.76457500, -4.96214342, -5.73022604, -26.46489906, 23.11577988, 82.70521545, -20.21025658, -122.38986206, -0.45765769, 0.19799384, -0.63341928, -0.59171617, 0.03499955, -0.00857470, -0.04480503, 101.81100464, -40.37772369, 22.62999916, 0.00000000
1, 4.7800, 239, -0.35188013, -0.91324621, -0.04252060, 33.16304398, 42.98757553, -7.39235640, -5.73022604, -25.72663879, 22.84284973, 83.03662872, -19.96208763, -121.45420837, -0.46078959, 0.20601100, -0.63291687, -0.58706784, 0.00842512, -0.01875049, -0.07331387, 101.81100464, -40.37772369, 22.62999916, 0.00000000
1, 4.8000, 240, -0.37199295, -0.92471880, -0.03905418, 17.93682098, 48.08525085, 0.47639334, -6.74545288, -25.35751152, 23.29773331, 83.04122925, -19.86484146, -120.51432800, -0.46515408, 0.21180551, -0.63100338, -0.58361369, 0.03174685, -0.00873887, -0.07447587, 101.81100464, -40.37772369, 22.62999916, 0.00000000
1, 4.8200, 241, -0.40787148, -0.95291930, -0.15991953, 26.48456955, 3.11971903, 1.05857539, -7.18055201, -25.01677895, 23.51001167, 83.57261658, -19.87397766, -120.46108246, -0.46447697, 0.21419926, -0.63362455, -0.58043069, 0.06792537, 0.01896830, 0.04961396, 101.81100464, -40.37772369, 22.62999916, 0.00000000
1, 4.8400, 242, -0.36408013, -0.93638134, -0.10909183, 36.11261749, 3.87009883, -3.73422742, -7.06452608, -24.78961945, 23.14610672, 84.26075745, -19.78127289, -120.37326050, -0.46321160, 0.21803214, -0.63671947, -0.57661551, 0.02465942, 0.00102746, 0.00960129, 101.81100464, -40.37772369, 22.62999916, 0.00000000
1, 4.8600, 243, -0.38152370, -0.94042206, -0.02968989, 34.01048279, 13.40288448, -7.00244045, -6.89048576, -25.13035583, 23.93457031, 84.83261108, -19.62041473, -120.13022614, -0.46261293, 0.22266264, -0.63875109, -0.57306862, 0.04454782, 0.00315757, -0.05962143, 101.81100464, -40.37772369, 22.62999916, 0.00000000
1, 4.8800, 244, -0.36875811, -0.93936062, -0.00159968, 25.28707123, 12.07869911, -0.41503474, -6.91949320, -25.24393272, 24.11652565, 85.23968506, -19.59319305, -119.86869812, -0.46299824, 0.22592920, -0.64020663, -0.56984568, 0.03334875, 0.00078991, -0.07953454, 101.81100464, -40.37772369, 22.62999916, 0.00000000
1, 4.9000, 245, -0.38445681, -0.95901555, -0.07992486, 23.55815315, 11.10753345, 0.25901139, -6.94850063, -25.21553802, 25.32955360, 85.61637878, -19.57062721, -119.66023254, -0.46318358, 0.22875230, -0.64160973, -0.56698370, 0.04919536, 0.01989782, 0.00472640, 101.81100464, -40.37772369, 22.62999916, 0.00000000
1, 4.9200, 246, -0.37882671, -0.95957285, -0.13372873, 30.66898537, 7.49122572, -1.13977730, -7.35459232, -24.33530998, 25.17792511, 86.19486237, -19.54379082, -119.54959106, -0.46244526, 0.23186901, -0.64417905, -0.56339562, 0.04428434, 0.01962381, 0.06611475, 101.81100464, -40.37772369, 22.62999916, 0.00000000
1, 4.9400, 247, -0.33449167, -0.93834037, -0.03686599, 27.19839859, -12.55378819, -4.46179771, -7.09353352, -24.13654518, 25.05662346, 86.80122375, -19.45259666, -119.79203796, -0.45960900, 0.23348252, -0.64743978, -0.56130862, 0.00031472, -0.00244268, -0.02011063, 101.81100464, -40.37772369, 22.62999916, 0.00000000
1, 4.9600, 248, -0.33731243, -0.93578064, -0.00227241, 17.68713188, 11.05084801, -15.65987587, -7.41260290, -24.16494179, 25.48118210, 87.05091095, -19.10543633, -119.57704926, -0.45855632, 0.23774727, -0.64743245, -0.56038713, 0.00681376, -0.00668507, -0.04798258, 101.81100464, -40.37772369, 22.62999916, 0.00000000
1, 4.9800, 249, -0.36147434, -0.95217544, -0.05541939, 12.62772274, 15.07604313, -19.23842621, -6.97750425, -23.65384102, 25.93606377, 87.24068451, -18.73424530, -119.34486389, -0.45758623, 0.24200146, -0.64702398, -0.55983043, 0.03774554, 0.00723176, 0.00769403, 101.81100464, -40.37772369, 22.62999916, 0.00000000
1, 5.0000, 250, -0.35660473, -0.94868559, -0.08727713, 29.33283234, -38.40754700, 2.34687352, -7.06452608, -23.71062851, 26.08769226, 88.11635590, -18.82213211, -120.19347382, -0.45201340, 0.24014665, -0.65327889, -0.55788916, 0.03516444, 0.00258715, 0.04778519, 101.81100464, -40.37772369, 22.62999916, 0.00000000
1, 5.0200, 251, -0.37695304, -0.95764804, 0.02891136, 43.26091766, -29.17390060, -1.54197192, -6.48439455, -24.76122665, 26.17867088, 89.14996338, -18.79195976, -120.73631287, -0.44706583, 0.24126859, -0.65936863, -0.55421543, 0.05404705, 0.01148171, -0.05086658, 101.81100464, -40.37772369, 22.62999916, 0.00000000
1, 5.0400, 252, -0.30602396, -0.92301160, -0.01907820, 37.40019608, -1.93250859, -7.75738525, -6.94850063, -22.77360916, 26.93680954, 89.95180511, -18.63393593, -120.82634735, -0.44417655, 0.24478497, -0.66308486, -0.55055058, -0.01496942, -0.02402963, 0.01095845, 101.81100464, -40.37772369, 22.62999916, 0.00000000
1, 5.0600, 253, -0.29582888, -0.92571902, 0.01436044, 52.89760971, -36.81293488, -6.32473326, -6.51340151, -23.36989403, 27.51299667, 91.26401520, -18.49307060, -121.63045502, -0.43683434, 0.24596196, -0.67079252, -0.54654902, -0.02252077, -0.02219041, -0.00479913, 101.81100464, -40.37772369, 22.62999916, 0.00000000
1, 5.0800, 254, -0.27682656, -0.91351700, 0.09061881, 57.23930359, -34.80763245, -9.29853249, -6.25234318, -22.37608528, 27.66462517, 92.60917664, -18.27516937, -122.30459595, -0.42965326, 0.24832658, -0.67819405, -0.54201937, -0.03879639, -0.03478724, -0.05793630, 101.81100464, -40.37772369, 22.62999916, 0.00000000
1, 5.1000, 255, -0.33469191, -0.92176318, 0.12735794, 52.77882767, -13.36751175, -11.98448944, -5.52717829, -21.38227844, 28.84732628, 93.74929047, -18.03737068, -122.62493896, -0.42445865, 0.25202057, -0.68379378, -0.53735143, 0.02341028, -0.02708498, -0.07475237, 101.81100464, -40.37772369, 22.62999916, 0.00000000
1, 5.1200, 256, -0.35642618, -0.95643681, 0.04443026, 51.48586273, -56.62909698, 7.69295835, -5.52717829, -20.78599167, 29.30221176, 95.20057678, -18.09563255, -123.90029907, -0.41562527, 0.24934813, -0.69347310, -0.53308189, 0.04631884, 0.00856609, 0.02863937, 101.81100464, -40.37772369, 22.62999916, 0.00000000
1, 5.1400, 257, -0.27031806, -0.91000110, 0.06674874, 71.46505737, -86.07888031, 11.48245621, -5.12108660, -21.24030685, 29.69644356, 97.19969940, -18.15325546, -125.71813202, -0.40320501, 0.24506277, -0.70674539, -0.52714425, -0.04044114, -0.03490879, 0.03573847, 101.81100464, -40.37772369, 22.62999916, 0.00000000
1, 5.1600, 258, -0.29309267, -0.90934968, 0.17023218, 79.58395386, -77.55887604, 15.18839931, -4.74400234, -20.21810341, 30.84881783, 99.28755188, -18.21891594, -127.35658264, -0.39164138, 0.24174279, -0.71986771, -0.51958436, -0.01931325, -0.03071676, -0.03384785, 101.81100464, -40.37772369, 22.62999916, 0.00000000
1, 5.1800, 259, -0.27757284, -0.88222462, 0.27343127, 70.19487762, -48.88682175, 3.05214548, -3.23566175, -19.45145035, 30.84881783, 100.98238373, -18.09920692, -128.34109497, -0.38296625, 0.24189556, -0.72940165, -0.51263702, -0.03433408, -0.05290941, -0.10553586, 101.81100464, -40.37772369, 22.62999916, 0.00000000
1, 5.2000, 260, -0.29281327, -0.90369266, 0.27593568, 54.90480042, -25.95520401, -8.86722755, -3.81578994, -18.11690712, 32.60770798, 102.19720459, -17.81447029, -128.82508850, -0.37662709, 0.24435666, -0.73543388, -0.50752234, -0.01570190, -0.02794740, -0.08400382, 101.81100464, -40.37772369, 22.62999916, 0.00000000
1, 5.2200, 261, -0.27751389, -0.89203680, 0.18315677, 48.83579636, -20.57214737, -1.06723106, -3.06162143, -17.63419914, 32.36510086, 103.33833313, -17.71413612, -129.30984497, -0.37147847, 0.24549080, -0.74136043, -0.50211835, -0.02725432, -0.03698832, 0.02662284, 101.81100464, -40.37772369, 22.62999916, 0.00000000
1, 5.2400, 262, -0.30611825, -0.89961505, 0.22507229, 59.44202805, -74.61400604, 17.60583115, -2.48148942, -16.29965782, 33.63877869, 105.03479004, -17.69108772, -130.97685242, -0.36048517, 0.24016543, -0.75225616, -0.49646938, 0.00196578, -0.02409307, 0.00774418, 101.81100464, -40.37772369, 22.62999916, 0.00000000
1, 5.2600, 263, -0.27364141, -0.87939465, 0.28713635, 58.25582123, -92.45574188, 19.21015739, -2.51049685, -15.70337296, 34.21496582, 106.77930450, -17.54716301, -132.93144226, -0.34759620, 0.23337179, -0.76365173, -0.49147794, -0.02930896, -0.03702066, -0.02569656, 101.81100464, -40.37772369, 22.62999916, 0.00000000
1, 5.2800, 264, -0.25481218, -0.85859805, 0.34744626, 54.20127106, -74.73148346, 13.09557247, -0.77010489, -15.36263847, 34.73049927, 108.32352448, -17.34849739, -134.48538208, -0.33664232, 0.22857632, -0.77317071, -0.48644832, -0.04503316, -0.05087186, -0.05949684, 101.81100464, -40.37772369, 22.62999916, 0.00000000
1, 5.3000, 265, -0.26150316, -0.85638654, 0.31293899, 53.05159378, -47.02198410, 6.67546654, -0.56705719, -15.13548183, 35.57962036, 109.66479492, -17.17626572, -135.43379211, -0.32890680, 0.22690904, -0.78055501, -0.48069370, -0.03508362, -0.04653690, -0.00191756, 101.81100464, -40.37772369, 22.62999916, 0.00000000
1, 5.3200, 266, -0.31651703, -0.87063551, 0.38747028, 55.22207642, -33.47498322, 8.44794178, 0.59320283, -13.65896702, 35.82222366, 110.97967529, -17.10829544, -136.18721008, -0.32274339, 0.22583066, -0.78746247, -0.47406757, 0.02191885, -0.02542604, -0.05542216, 101.81100464, -40.37772369, 22.62999916, 0.00000000
1, 5.3400, 267, -0.31646347, -0.86567718, 0.40146080, 47.30319214, -54.20375061, 18.86881256, 0.91227615, -15.36263847, 36.09515762, 112.27582550, -17.06328201, -137.36463928, -0.31508371, 0.22152819, -0.79505646, -0.46854317, 0.02262140, -0.02283417, -0.04907525, 101.81100464, -40.37772369, 22.62999916, 0.00000000
1, 5.3600, 268, -0.30428180, -0.84807330, 0.46998799, 43.04452515, -38.47311020, 16.72000885, 0.70923221, -12.97749805, 36.51971436, 113.37509155, -17.07201767, -138.25267029, -0.30941975, 0.21829602, -0.80123651, -0.46327779, 0.01082307, -0.03286373, -0.09875862, 101.81100464, -40.37772369, 22.62999916, 0.00000000
1, 5.3800, 269, -0.28579080, -0.83388609, 0.47080091, 25.21858406, -32.44827271, 14.51724625, 1.52141535, -12.40960789, 36.27710724, 114.07617950, -17.08575058, -138.94946289, -0.30537525, 0.21522605, -0.80538857, -0.46018803, -0.00778571, -0.04096769, -0.08552762, 101.81100464, -40.37772369, 22.62999916, 0.00000000
1, 5.4000, 270, -0.33059376, -0.86955392, 0.42131674, 20.67025375, -11.13881207, 11.28128529, 1.63744104, -11.84171772, 36.27710724, 114.55574036, -17.20283508, -139.28518677, -0.30390051, 0.21357946, -0.80800802, -0.45733067, 0.03584343, -0.00113561, -0.02759411, 101.81100464, -40.37772369, 22.62999916, 0.00000000
1, 5.4200, 271, -0.33820093, -0.87663710, 0.39084801, 26.60998154, -11.37887287, 9.54920864, 1.92750692, -10.56396389, 36.39841080, 115.19082642, -17.27070999, -139.58047485, -0.30199179, 0.21285072, -0.81112033, -0.45340863, 0.04167318, 0.01004606, 0.01050489, 101.81100464, -40.37772369, 22.62999916, 0.00000000
1, 5.4400, 272, -0.28701675, -0.82853466, 0.47974515, 37.31499100, -1.81475937, 1.34004045, 1.89849961, -10.59235764, 36.76232147, 115.93084717, -17.29726791, -139.56999207, -0.30082783, 0.21474667, -0.81402618, -0.44804922, -0.00986222, -0.03279137, -0.06747094, 101.81100464, -40.37772369, 22.62999916, 0.00000000
1, 5.4600, 273, -0.32453403, -0.83971393, 0.45279241, 29.60331726, 18.71095085, 4.58698368, 1.63744104, -10.05286217, 36.85329437, 116.45777130, -17.53731728, -139.32176208, -0.30239153, 0.21677898, -0.81573373, -0.44288224, 0.02507385, -0.01686233, -0.03255953, 101.81100464, -40.37772369, 22.62999916, 0.00000000
1, 5.4800, 274, -0.30967835, -0.83700973, 0.42346871, 59.46394348, -11.27896309, 14.87169170, 1.52141535, -9.08744812, 37.00492477, 117.77845764, -17.70540428, -139.70124817, -0.29956108, 0.21676084, -0.82158607, -0.43390581, 0.00709882, -0.01165227, 0.01033641, 101.81100464, -40.37772369, 22.62999916, 0.00000000
1, 5.5000, 275, -0.35380653, -0.76810616, 0.42659643, 79.33737183, -18.65699768, 23.73390198, 1.46340072, -8.51955795, 37.12622452, 119.59106445, -17.90433693, -140.27043152, -0.29534909, 0.21646442, -0.82951117, -0.42169100, 0.04763846, -0.06748330, 0.02946760, 101.81100464, -40.37772369, 22.62999916, 0.00000000
1, 5.5200, 276, -0.27889997, -0.95606971, 0.47016579, 100.89183807, -15.23069382, 2.95203662, 1.72445929, -7.32698727, 37.61143875, 121.67110443, -17.83750725, -140.59402466, -0.28976345, 0.21971604, -0.83763134, -0.40759757, -0.02661469, 0.13695434, 0.01525328, 101.81100464, -40.37772369, 22.62999916, 0.00000000
1, 5.5400, 277, -0.30958319, -0.78111124, 0.53401077, 76.98339844, -8.17247963, 18.57007027, 2.10154343, -6.70230818, 37.30818176, 123.32997894, -18.06800842, -140.92768860, -0.28699824, 0.22044969, -0.84414732, -0.39553696, 0.00148607, -0.02124736, -0.02288448, 101.81100464, -40.37772369, 22.62999916, 0.00000000
1, 5.5600, 278, -0.34098217, -0.75177693, 0.53037059, 101.14640045, 2.21837926, 15.84661484, 1.81148136, -5.16900396, 37.88436890, 125.43313599, -18.36482811, -141.08958435, -0.28444764, 0.22324990, -0.85162902, -0.37944320, 0.02851493, -0.03278801, 0.00511491, 101.81100464, -40.37772369, 22.62999916, 0.00000000
1, 5.5800, 279, -0.31072786, -0.75022024, 0.56122869, 120.65506744, -1.88080585, 22.28753090, 1.86949229, -2.81225824, 37.94502258, 127.92823029, -18.70643997, -141.41307068, -0.28092548, 0.22560085, -0.86035210, -0.36052677, -0.00705705, -0.01003084, 0.00526947, 101.82800293, -41.78712845, 23.27999878, 0.00000000
1, 5.6000, 280, -0.33329004, -0.75131822, 0.63187367, 84.20281219, 2.54317188, 29.36922836, 1.69545197, -2.15918374, 38.61218262, 129.64935303, -19.20730591, -141.75836182, -0.28004304, 0.22523895, -0.86634362, -0.34683168, 0.00878743, 0.01526420, -0.03784638, 101.82800293, -41.78712845, 23.27999878, 0.00000000
1, 5.6200, 281, -0.38882387, -0.71807045, 0.71964794, 43.07982635, 22.60248947, 25.58958435, 1.86949229, -1.33574307, 38.03599548, 130.47406006, -19.90734482, -141.71336365, -0.28357035, 0.22489853, -0.86866480, -0.33827513, 0.05447719, -0.00263223, -0.11237542, 101.82800293, -41.78712845, 23.27999878, 0.00000000
1, 5.6400, 282, -0.39729092, -0.66772950, 0.67906404, 30.99113083, 41.40137100, 24.12078857, 1.11532378, -0.68266946, 37.91469574, 130.97039795, -20.81334305, -141.39674377, -0.29000744, 0.22506030, -0.86936098, -0.33083972, 0.04947739, -0.04267793, -0.06724133, 101.82800293, -41.78712845, 23.27999878, 0.00000000
1, 5.6600, 283, -0.38605466, -0.67891234, 0.61768568, 20.15417480, 17.73312378, 36.24253845, 0.97029084, -0.59748536, 38.27859879, 131.46011353, -21.57694054, -141.67175293, -0.29373193, 0.22129737, -0.87113607, -0.32537833, 0.02414684, -0.02254685, -0.00371229, 101.82800293, -41.78712845, 23.27999878, 0.00000000
1, 5.6800, 284, -0.38132173, -0.66598445, 0.62488109, 31.39126587, -3.61630845, 40.66939926, 0.76724315, -0.88143104, 38.30892563, 132.37107849, -22.12554932, -142.36781311, -0.29397622, 0.21624987, -0.87486380, -0.31847656, 0.00895562, -0.02529538, -0.00564242, 101.82800293, -41.78712845, 23.27999878, 0.00000000
1, 5.7000, 285, -0.36842597, -0.62662452, 0.67212534, 48.91953659, -23.42944336, 50.51927185, 1.11532378, -0.08638465, 38.36957932, 133.75344849, -22.54765129, -143.43797302, -0.29152587, 0.21001200, -0.88047826, -0.30929860, -0.01171885, -0.04898258, -0.04045389, 101.82800293, -41.78712845, 23.27999878, 0.00000000
1, 5.7200, 286, -0.40709060, -0.59105915, 0.76193881, 51.71227646, 29.24920082, 28.95404053, 1.26035678, -0.05798935, 38.06632233, 134.71646118, -23.40345955, -143.36335754, -0.29617962, 0.20992331, -0.88249028, -0.29903311, 0.01775626, -0.06806161, -0.11855156, 101.82800293, -41.78712845, 23.27999878, 0.00000000
1, 5.7400, 287, -0.46767241, -0.62781835, 0.71754414, 20.79164124, 57.93926239, 24.93965530, 1.05730915, 1.78765571, 37.67208862, 134.91195679, -24.59032440, -142.87678528, -0.30568910, 0.20986059, -0.88144904, -0.29250732, 0.06134871, -0.02017347, -0.07335434, 101.82800293, -41.78712845, 23.27999878, 0.00000000
1, 5.7600, 288, -0.42412883, -0.62370175, 0.61982262, -28.96123505, 69.08194733, 37.81560516, 0.33214423, 1.56049883, 37.79339218, 134.14463806, -26.08273888, -142.39424133, -0.31906086, 0.20597671, -0.87769306, -0.29228190, -0.00355926, -0.01988814, 0.01485190, 101.82800293, -41.78712845, 23.27999878, 0.00000000
1, 5.7800, 289, -0.46270657, -0.60670298, 0.69318199, -25.78320313, 55.00730133, 37.58770370, -0.65407926, 1.75926042, 38.00566864, 133.46414185, -27.39407730, -142.06222534, -0.33047178, 0.20166627, -0.87447762, -0.29224640, 0.01284985, -0.03749904, -0.07464020, 101.82800293, -41.78712845, 23.27999878, 0.00000000
1, 5.8000, 290, -0.45682499, -0.63033855, 0.55749577, -22.43865967, 56.55027008, 27.17171860, -1.43725502, 0.82224113, 37.39915466, 132.79418945, -28.53405380, -141.58473206, -0.34091809, 0.19899099, -0.87110603, -0.29215062, -0.01281477, -0.01438447, 0.04561254, 101.82800293, -41.78712845, 23.27999878, 0.00000000
1, 5.8200, 291, -0.52924603, -0.62708014, 0.63240844, -9.34184456, 30.04410553, 17.74282837, -2.10440516, 1.13458025, 37.49013519, 132.51753235, -29.17395782, -141.35948181, -0.34646150, 0.19740178, -0.86952543, -0.29141465, 0.04599024, -0.01696385, -0.03939750, 101.82800293, -41.78712845, 23.27999878, 0.00000000
1, 5.8400, 292, -0.53162527, -0.62815636, 0.61718976, 5.89195967, 9.25214481, 11.61964798, -1.58228803, 0.28274509, 37.52046204, 132.67512512, -29.46100235, -141.40383911, -0.34808823, 0.19643141, -0.86977547, -0.28937882, 0.04168442, -0.01400525, -0.02762671, 101.82800293, -41.78712845, 23.27999878, 0.00000000
1, 5.8600, 293, -0.51165593, -0.61633408, 0.60754186, 22.83776665, -1.92104948, 14.71817303, -2.27844548, 0.96421397, 38.18762589, 133.25268555, -29.65259361, -141.68048096, -0.34775096, 0.19534516, -0.87153941, -0.28518167, 0.01831603, -0.02065399, -0.01521035, 101.82800293, -41.78712845, 23.27999878, 0.00000000
1, 5.8800, 294, -0.51982594, -0.52331007, 0.69962746, 21.11203003, 14.45433235, 12.03727818, -2.59751511, 1.84444439, 37.15655136, 133.64508057, -30.02245140, -141.61637878, -0.34983805, 0.19561245, -0.87208289, -0.28075001, 0.02235512, -0.10610663, -0.10267459, 101.82800293, -41.78712845, 23.27999878, 0.00000000
1, 5.9000, 295, -0.59263980, -0.60830796, 0.69940430, 16.12442017, 17.46560860, 5.79380798, -2.24943829, 2.38394046, 36.91394806, 133.78549194, -30.36402702, -141.43475342, -0.35243893, 0.19612160, -0.87181348, -0.27796510, 0.09011074, -0.01563400, -0.10094107, 101.82800293, -41.78712845, 23.27999878, 0.00000000
1, 5.9200, 296, -0.51026011, -0.61265284, 0.60753816, 0.31847072, 23.40093613, 5.92727661, -3.00360680, 1.33334184, 37.70241165, 133.65467834, -30.77710342, -141.11999512, -0.35631749, 0.19653121, -0.87058622, -0.27657384, 0.00168643, -0.00984993, -0.01269393, 101.82800293, -41.78712845, 23.27999878, 0.00000000
1, 5.9400, 297, -0.50217825, -0.66418344, 0.47991869, 17.81677246, 38.61925125, -2.60477924, -3.23566175, 1.21976435, 36.82296753, 133.66697693, -31.27832985, -140.41531372, -0.36147994, 0.19999529, -0.86894006, -0.27253896, -0.01317147, 0.04402744, 0.11153398, 101.82800293, -41.78712845, 23.27999878, 0.00000000
1, 5.9600, 298, -0.52729225, -0.57604557, 0.59953290, -3.47244072, 73.00576782, -8.67607784, -3.14863968, 1.61728752, 36.82296753, 132.64070129, -32.25121689, -138.84356689, -0.37374029, 0.20479727, -0.86284494, -0.27179921, 0.00277211, -0.04135057, -0.01329810, 101.82800293, -41.78712845, 23.27999878, 0.00000000
1, 5.9800, 299, -0.60257125, -0.63085103, 0.62442052, -34.96606445, 138.07290649, -36.15769958, -5.44015980, 1.70247161, 36.21645737, 130.31932068, -33.51066971, -135.87074280, -0.39356181, 0.21418837, -0.85080642, -0.27451950, 0.05883521, 0.00258217, -0.06807298, 101.82800293, -41.78712845, 23.27999878, 0.00000000
1, 6.0000, 300, -0.53204703, -0.61193597, 0.57222712, -34.18661118, 102.69497681, -32.11773682, -7.55763626, 0.79384583, 35.57962036, 128.30255127, -34.29872131, -133.48516846, -0.40830341, 0.22144420, -0.84082103, -0.27797666, -0.02612066, -0.02993613, -0.04650528, 101.82800293, -41.78712845, 23.27999878, 0.00000000
1, 6.0200, 301, -0.54189020, -0.63813204, 0.48994488, -17.44884682, 82.55206299, -32.13574982, -8.25379372, 0.65187299, 35.45831680, 126.84684753, -34.78481293, -131.46748352, -0.41917273, 0.22883177, -0.83300287, -0.27935019, -0.02543873, -0.01533979, 0.01113372, 101.82800293, -41.78712845, 23.27999878, 0.00000000
1, 6.0400, 302, -0.60207355, -0.67653090, 0.42690220, 6.35668182, 44.62991714, -20.33507156, -9.21100998, 0.59508425, 35.21571350, 126.34064484, -34.96878433, -130.34463501, -0.42408183, 0.23430933, -0.82939738, -0.27812552, 0.02962706, 0.01740454, 0.06080064, 101.82800293, -41.78712845, 23.27999878, 0.00000000
1, 6.0600, 303, -0.64850944, -0.63623255, 0.53443462, 13.98159027, 24.61991501, -12.09688759, -8.65988541, 0.45311138, 34.45756912, 126.26144409, -35.07092667, -129.73426819, -0.42635715, 0.23798013, -0.82789332, -0.27600321, 0.07480834, -0.02442100, -0.05028241, 101.82800293, -41.78712845, 23.27999878, 0.00000000
1, 6.0800, 304, -0.60342646, -0.60927892, 0.56788844, 14.96950531, 21.78806877, -6.40237713, -9.12399197, 0.82224113, 34.09366226, 126.24867249, -35.23183823, -129.20710754, -0.42864582, 0.24102972, -0.82667708, -0.27344576, 0.02786122, -0.04988232, -0.08391465, 101.82800293, -41.78712845, 23.27999878, 0.00000000
1, 6.1000, 305, -0.57800967, -0.62935126, 0.52178788, 1.69814265, 13.07166195, -0.92287439, -8.86293316, 0.90742522, 34.33626938, 126.03392029, -35.32999420, -129.01930237, -0.43015277, 0.24114576, -0.82571900, -0.27387157, -0.00000629, -0.02921905, -0.03993489, 101.82800293, -41.78712845, 23.27999878, 0.00000000
1, 6.1200, 306, -0.51891851, -0.67611110, 0.39851135, -4.70316124, -6.94751358, 1.73662126, -9.24001694, -0.11477812, 33.54779816, 126.04441071, -35.26521301, -129.19102478, -0.42931959, 0.24023364, -0.82613766, -0.27471647, -0.05925734, 0.01618661, 0.08129300, 101.82800293, -41.78712845, 23.27999878, 0.00000000
1, 6.1400, 307, -0.59497911, -0.68823880, 0.41807467, -7.20953989, -20.93754768, 3.22997069, -9.06597710, -0.28514627, 34.27561569, 126.16684723, -35.06503677, -129.63218689, -0.42676318, 0.23839125, -0.82745624, -0.27633137, 0.01883922, 0.02778224, 0.06344269, 101.82800293, -41.78712845, 23.27999878, 0.00000000
1, 6.1600, 308, -0.55170345, -0.53809553, 0.53350598, -6.32760906, 5.40809536, 13.90808296, -8.48584461, 0.90742522, 34.39691925, 126.06693268, -35.36579514, -129.82937622, -0.42836019, 0.23526782, -0.82746333, -0.27651563, -0.02292478, -0.12280832, -0.05080029, 101.82800293, -41.78712845, 23.27999878, 0.00000000
1, 6.1800, 309, -0.69290984, -0.64886129, 0.53057432, -11.25896072, -0.60684377, 20.59181595, -9.18200207, 0.62347955, 34.97310638, 126.07128143, -35.69861603, -130.21331787, -0.42948955, 0.23104012, -0.82806903, -0.27651578, 0.11181483, -0.00931558, -0.05189908, 101.82800293, -41.78712845, 23.27999878, 0.00000000
1, 6.2000, 310, -0.55796635, -0.63490689, 0.48698148, -12.25501633, -29.81155396, 35.43017197, -9.00796604, 1.02100277, 34.63952637, 126.43796539, -35.88913345, -131.32269287, -0.42726871, 0.22353992, -0.83103895, -0.27721059, -0.02741061, -0.01862082, -0.00715590, 101.82800293, -41.78712845, 23.27999878, 0.00000000
1, 6.2200, 311, -0.55984586, -0.62493598, 0.47005287, -19.82444954, -22.77756691, 14.49896812, -8.02174282, 0.42471793, 35.00343323, 126.41889191, -35.84640884, -131.95646667, -0.42549726, 0.21905708, -0.83224452, -0.27988419, -0.02619375, -0.02677047, 0.01144087, 101.82800293, -41.78712845, 23.27999878, 0.00000000
1, 6.2400, 312, -0.56428087, -0.62570757, 0.45364767, -13.22483826, -19.55410004, 4.35157776, -8.31180859, 0.96421397, 34.73049927, 126.43190002, -35.68192291, -132.46409607, -0.42319274, 0.21613838, -0.83335072, -0.28234503, -0.02023454, -0.02731634, 0.02791335, 101.82800293, -41.78712845, 23.27999878, 0.00000000
1, 6.2600, 313, -0.71040797, -0.63355935, 0.48540735, -2.05101299, -25.36890030, -2.15368438, -8.13776779, 0.56669074, 35.24603653, 126.63204956, -35.35799789, -132.87413025, -0.41975677, 0.21530817, -0.83483624, -0.28371665, 0.12941757, -0.02044315, -0.00091963, 101.82800293, -41.78712845, 23.27999878, 0.00000000
1, 6.2800, 314, -0.60429645, -0.63189292, 0.47024930, 25.17486191, -14.02635574, -16.66456604, -7.52862883, 0.48150671, 35.21571350, 127.18598175, -34.92543411, -132.91937256, -0.41584820, 0.21887973, -0.83658022, -0.28159496, 0.02863019, -0.02237844, 0.02018872, 101.82800293, -41.78712845, 23.27999878, 0.00000000
1, 6.3000, 315, -0.52656096, -0.58417076, 0.51749355, 45.16562653, -15.36193657, -4.29391193, -7.76068401, 0.70866358, 35.60994339, 128.23597717, -34.69060516, -133.17778015, -0.41169816, 0.22179037, -0.83979219, -0.27579480, -0.04380083, -0.06595404, -0.01548826, 101.82800293, -41.78712845, 23.27999878, 0.00000000
1, 6.3200, 316, -0.54000366, -0.60329825, 0.50800782, 60.53309250, 0.09229287, 12.08873367, -7.73167658, 1.61728752, 35.42798996, 129.56457520, -34.90190506, -133.35075378, -0.41006583, 0.22439015, -0.84311306, -0.26581094, -0.03007418, -0.03624309, 0.00771964, 101.82800293, -41.78712845, 23.27999878, 0.00000000
1, 6.3400, 317, -0.61942971, -0.60468072, 0.55575138, 57.64821243, 11.36447620, 20.40173912, -7.73167658, 0.59508425, 35.73124695, 130.73843384, -35.35405731, -133.45890808, -0.41044810, 0.22591259, -0.84563220, -0.25573835, 0.04402807, -0.01987579, -0.02771745, 101.82800293, -41.78712845, 23.27999878, 0.00000000
1, 6.3600, 318, -0.63111889, -0.59830594, 0.54491729, 31.69058800, 6.52017117, 20.88835526, -8.31180859, 2.72467494, 35.06408310, 131.47523499, -35.74888611, -133.71002197, -0.41101816, 0.22507314, -0.84740609, -0.24961840, 0.04961936, -0.01466197, -0.01001626, 101.82800293, -41.78712845, 23.27999878, 0.00000000
1, 6.3800, 319, -0.58434993, -0.58405143, 0.52856600, 23.46400261, -3.78304029, 21.86036301, -7.64465809, 3.06540942, 34.45756912, 132.19050598, -36.01525116, -134.14924622, -0.41041484, 0.22329837, -0.84956002, -0.24483746, -0.00196506, -0.01945821, 0.01180703, 101.82800293, -41.78712845, 23.27999878, 0.00000000
1, 6.4000, 320, -0.60381848, -0.58595115, 0.54164439, 15.92758942, -10.50317955, 21.84741592, -7.61565065, 3.54811478, 35.12473297, 132.81669617, -36.17640305, -134.74569702, -0.40899676, 0.22045836, -0.85188502, -0.24168560, 0.01450781, -0.00955944, 0.00431753, 101.82800293, -41.78712845, 23.27999878, 0.00000000
1, 6.4200, 321, -0.61990291, -0.55138123, 0.64630407, 4.30098438, -13.45235443, 16.69368935, -7.67366171, 2.61109567, 34.63952637, 133.15327454, -36.24264908, -135.21090698, -0.40781203, 0.21793073, -0.85341477, -0.24058010, 0.02925199, -0.03811219, -0.09528022, 101.82800293, -41.78712845, 23.27999878, 0.00000000
1, 6.4400, 322, -0.61981052, -0.54089540, 0.61598152, -14.41453838, 14.33495903, -1.17861998, -7.44161034, 3.77527165, 34.60919952, 132.67344666, -36.42684937, -134.90623474, -0.41058350, 0.21774465, -0.85163319, -0.24234165, 0.02748795, -0.04872354, -0.06689174, 101.82800293, -41.78712845, 23.27999878, 0.00000000
1, 6.4600, 323, -0.60803348, -0.57241786, 0.54735303, -17.37858009, 18.66984558, -2.46311736, -7.87670946, 3.57651019, 34.76082611, 132.08459473, -36.64354324, -134.56423950, -0.41385227, 0.21728711, -0.84951127, -0.24462914, 0.01274949, -0.02144936, -0.00610148, 101.82800293, -41.78712845, 23.27999878, 0.00000000
1, 6.4800, 324, -0.60087353, -0.59141898, 0.51122481, -12.81960678, 4.19697905, 14.05455589, -7.93472052, 2.86664772, 34.85180283, 131.94607544, -36.89953232, -134.76953125, -0.41535082, 0.21422064, -0.84933972, -0.24538805, 0.00212849, -0.00402720, 0.02444908, 101.82800293, -41.78712845, 23.27999878, 0.00000000
1, 6.5000, 325, -0.60766494, -0.54629767, 0.54099607, -19.25391769, -10.74736023, 21.11196518, -7.58664322, 3.57651019, 34.09366226, 131.84487915, -37.06977463, -135.32608032, -0.41545624, 0.20903203, -0.84997183, -0.24748664, 0.00604525, -0.04791084, -0.00717085, 101.82800293, -41.78712845, 23.27999878, 0.00000000
1, 6.5200, 326, -0.63377964, -0.55015141, 0.48229405, -42.01651001, -7.36358356, 20.56358147, -7.67366171, 2.41233397, 35.21571350, 131.24163818, -37.29306412, -135.81666565, -0.41693068, 0.20228776, -0.84929734, -0.25286829, 0.02969506, -0.04559505, 0.04701004, 101.82800293, -41.78712845, 23.27999878, 0.00000000
1, 6.5400, 327, -0.58890891, -0.56487566, 0.53960639, -76.53331757, 7.51885796, 27.74227333, -7.76068401, 2.49751806, 35.73124695, 129.66639709, -37.82940292, -136.00617981, -0.42271259, 0.19288053, -0.84550643, -0.26311645, -0.01995743, -0.03582095, -0.02152051, 101.82800293, -41.78712845, 23.27999878, 0.00000000
1, 6.5600, 328, -0.65301222, -0.62330818, 0.60246503, -73.83564758, 40.09343338, -2.69820762, -8.39882660, 1.58889413, 35.12473297, 127.87756348, -38.23992920, -135.22439575, -0.43016481, 0.19021851, -0.83960307, -0.27173901, 0.03603887, 0.00669400, -0.11349862, 101.82800293, -41.78712845, 23.27999878, 0.00000000
1, 6.5800, 329, -0.63821125, -0.58935040, 0.49870116, 4.17714310, 8.70984840, -3.86576486, -8.10876083, 1.19136906, 35.30668640, 127.83659363, -38.28316498, -135.01593018, -0.43100199, 0.19140427, -0.83911592, -0.27108335, 0.01890698, -0.03074544, -0.01709627, 101.82800293, -41.78712845, 23.27999878, 0.00000000
1, 6.6000, 330, -0.63193959, -0.59430355, 0.46173891, 5.52430487, -10.09978104, 6.24279928, -8.10876083, 0.99260741, 35.45831680, 128.09236145, -38.26160049, -135.36134338, -0.42962274, 0.18992685, -0.84031677, -0.27059215, 0.01251635, -0.02458948, 0.02125707, 101.82800293, -41.78712845, 23.27999878, 0.00000000
1, 6.6200, 331, -0.61330622, -0.57446319, 0.52058595, 1.25479043, -9.93479919, 16.50288010, -8.31180859, 1.27655315, 35.67059708, 128.39797974, -38.40424347, -135.81997681, -0.42895108, 0.18709168, -0.84164500, -0.26950240, -0.00670591, -0.04168417, -0.03484350, 101.82800293, -41.78712845, 23.27999878, 0.00000000
1, 6.6400, 332, -0.60474229, -0.54019845, 0.55371118, -0.75693142, 5.97855711, 13.43800926, -7.99273491, 0.53829545, 34.97310638, 128.40267944, -38.70624542, -135.87399292, -0.43074980, 0.18541494, -0.84142476, -0.26847774, -0.01821539, -0.07235470, -0.06719210, 101.82800293, -41.78712845, 23.27999878, 0.00000000
1, 6.6600, 333, -0.65979731, -0.55690527, 0.53297734, -8.00620174, 34.46314240, 8.89587688, -8.31180859, 0.96421397, 34.36659622, 127.83949280, -39.29073334, -135.29640198, -0.43673402, 0.18499134, -0.83855015, -0.26809615, 0.03086549, -0.05435935, -0.05257108, 101.82800293, -41.78712845, 23.27999878, 0.00000000
1, 6.6800, 334, -0.71723396, -0.57997638, 0.52023238, -13.90983105, 61.72357559, 7.57927895, -8.51485252, 1.84444439, 34.66984940, 126.79712677, -40.17905426, -134.11907959, -0.44675153, 0.18566668, -0.83327603, -0.26756683, 0.07838509, -0.03154335, -0.05344701, 101.82800293, -41.78712845, 23.27999878, 0.00000000
1, 6.7000, 335, -0.68724513, -0.62367475, 0.39422154, -18.92279053, 63.38056183, 11.10810280, -9.32703495, 1.90123320, 33.51747894, 125.70422363, -41.06795883, -133.05836487, -0.45648128, 0.18507966, -0.82809591, -0.26763341, 0.03561369, 0.01150524, 0.05365605, 101.82800293, -41.78712845, 23.27999878, 0.00000000
1, 6.7200, 336, -0.70672280, -0.61436689, 0.39477506, -6.81856871, -3.68617392, 31.49940300, -9.64610863, 0.87902987, 34.42724228, 125.95548248, -41.53021622, -133.66253662, -0.45750383, 0.17963314, -0.82916003, -0.26630065, 0.04660641, 0.00507168, 0.04454347, 101.82800293, -41.78712845, 23.27999878, 0.00000000
1, 6.7400, 337, -0.69822896, -0.57956034, 0.44445509, -10.66468525, -22.74223900, 43.12847137, -9.67511559, 1.10618687, 34.27561569, 126.55516052, -41.96001434, -134.88874817, -0.45638853, 0.17121397, -0.83194458, -0.26507267, 0.03245162, -0.02255865, -0.00378991, 101.82800293, -41.78712845, 23.27999878, 0.00000000
1, 6.7600, 338, -0.68207383, -0.54983187, 0.48011613, -16.45379066, -36.52285385, 56.72362900, -9.06597710, 1.67407632, 34.88212967, 127.35620117, -42.43019867, -136.59019470, -0.45422691, 0.15993480, -0.83567250, -0.26410285, 0.01048850, -0.04220069, -0.03462780, 101.82800293, -41.78712845, 23.27999878, 0.00000000
1, 6.7800, 339, -0.65007597, -0.54927200, 0.46953234, -13.15680027, -23.35668373, 47.39881134, -8.68889236, 0.90742522, 34.54854584, 127.93918610, -42.89786530, -137.82800293, -0.45352688, 0.15115662, -0.83806455, -0.26289350, -0.02761089, -0.03263032, -0.01995172, 101.82800293, -41.78712845, 23.27999878, 0.00000000
1, 6.8000, 340, -0.67895496, -0.54046810, 0.45789024, -9.76152515, 1.76359093, 31.59437561, -8.71790028, 0.08398349, 34.91245651, 128.03308105, -43.41286469, -138.30175781, -0.45556808, 0.14582130, -0.83816212, -0.26206511, -0.00503916, -0.03411790, -0.00844894, 101.82800293, -41.78712845, 23.27999878, 0.00000000
1, 6.8200, 341, -0.70825362, -0.53258675, 0.46229455, -6.02970743, 17.56349182, 23.57423401, -8.80491829, 1.13458025, 35.24603653, 127.91738129, -44.00711060, -138.30786133, -0.45944089, 0.14272471, -0.83703583, -0.26060468, 0.01741335, -0.03716894, -0.01719777, 101.82800293, -41.78712845, 23.27999878, 0.00000000
1, 6.8400, 342, -0.71550494, -0.54875290, 0.42812738, -10.96439552, 16.60427094, 26.96161652, -9.12399197, 1.70247161, 34.45756912, 127.80583191, -44.64477921, -138.46122742, -0.46322918, 0.13836905, -0.83601260, -0.25952965, 0.01681112, -0.01619693, 0.01079272, 101.82800293, -41.78712845, 23.27999878, 0.00000000
1, 6.8600, 343, -0.72088337, -0.51366150, 0.46068957, -11.46600628, -4.30314589, 43.53317261, -9.24001694, 0.85063642, 34.88212967, 128.15335083, -45.27382278, -139.32980347, -0.46480498, 0.13069141, -0.83683175, -0.25804791, 0.01417598, -0.04409458, -0.02541465, 101.82800293, -41.78712845, 23.27999878, 0.00000000
1, 6.8800, 344, -0.72576058, -0.51126409, 0.47198603, -14.34632683, 3.01886106, 36.21878433, -9.26902485, 1.73086512, 35.00343323, 128.26896667, -45.87989807, -139.87963867, -0.46724832, 0.12451178, -0.83670950, -0.25708553, 0.01158013, -0.03849958, -0.03874335, 101.82800293, -41.78712845, 23.27999878, 0.00000000
1, 6.9000, 345, -0.73827374, -0.52957076, 0.41977021, -7.20771646, 4.11033916, 33.21231461, -9.64610863, 1.92962670, 34.91245651, 128.44322205, -46.44665146, -140.38247681, -0.46950033, 0.11909430, -0.83666879, -0.25567821, 0.01685761, -0.01334099, 0.01011232, 101.82800293, -41.78712845, 23.27999878, 0.00000000
1, 6.9200, 346, -0.75800604, -0.48500630, 0.44342244, -6.30161715, 8.05540848, 20.74114609, -9.50107574, 1.78765571, 34.51822281, 128.48222351, -46.86904526, -140.60980225, -0.47160846, 0.11576601, -0.83624870, -0.25469953, 0.03061903, -0.05236650, -0.01664908, 101.82800293, -41.78712845, 23.27999878, 0.00000000
1, 6.9400, 347, -0.78702962, -0.49873248, 0.40110362, -10.47069454, -3.54188061, 41.91820145, -9.21100998, 0.79384583, 34.73049927, 128.90797424, -47.52279282, -141.46624756, -0.47340935, 0.10844902, -0.83684289, -0.25261918, 0.05405947, -0.03237018, 0.02395505, 101.82800293, -41.78712845, 23.27999878, 0.00000000
1, 6.9600, 348, -0.73813987, -0.48265186, 0.41804859, 1.26221251, 15.93840885, 63.78274536, -9.96518230, 2.12838817, 34.88212967, 129.50926208, -48.71859741, -142.27093506, -0.47864801, 0.09995321, -0.83658785, -0.24703518, -0.00623231, -0.03461288, 0.00422623, 101.82800293, -41.78712845, 23.27999878, 0.00000000
1, 6.9800, 349, -0.75169939, -0.48862404, 0.45589396, -2.67060351, 37.24775314, 45.17185211, -9.84915638, 2.09999490, 34.79115295, 129.37837219, -49.88499832, -142.17739868, -0.48628739, 0.09510358, -0.83387482, -0.24317214, -0.00654897, -0.01400538, -0.04068650, 101.82800293, -41.78712845, 23.27999878, 0.00000000
1, 7.0000, 350, -0.78519392, -0.50951135, 0.40400761, -2.35904884, 60.77024841, 16.79738808, -10.37127399, 0.87902987, 34.45756912, 128.42314148, -50.87940598, -141.04849243, -0.49563372, 0.09490723, -0.82888502, -0.24143194, 0.01439995, 0.01378704, -0.00387425, 101.82800293, -41.78712845, 23.27999878, 0.00000000
1, 7.0200, 351, -0.75805455, -0.44265249, 0.31785589, 4.32495260, 26.65460396, 16.48837852, -11.18345642, 2.55430675, 33.66910172, 128.28082275, -51.47212982, -140.74180603, -0.50002509, 0.09391695, -0.82711935, -0.23880567, -0.02100828, -0.04945642, 0.07058125, 101.82800293, -41.78712845, 23.27999878, 0.00000000
1, 7.0400, 352, -0.79579395, -0.41684291, 0.40074775, -1.99837101, 15.48341560, 30.42948341, -11.41550827, 2.44072914, 32.78966141, 128.39627075, -52.16033936, -140.97299194, -0.50365186, 0.08974588, -0.82610703, -0.23627920, 0.00995357, -0.06809396, -0.01697396, 101.82800293, -41.78712845, 23.27999878, 0.00000000
1, 7.0600, 353, -0.80512947, -0.43615633, 0.39790395, -13.03134727, 37.18341446, 43.54309464, -11.70557404, 2.61109567, 33.42649841, 128.03944397, -53.31737518, -140.87825012, -0.51113123, 0.08377561, -0.82282197, -0.23385981, 0.00973635, -0.03976281, -0.02264066, 101.82800293, -41.78712845, 23.27999878, 0.00000000
1, 7.0800, 354, -0.81899232, -0.45718268, 0.32262105, -9.89524841, 47.24156189, 47.50046539, -11.87961388, 3.80366707, 32.81998444, 127.60636139, -54.62698746, -140.58116150, -0.51988751, 0.07817212, -0.81885302, -0.23040408, 0.01010492, -0.00710926, 0.03807074, 101.82800293, -41.78712845, 23.27999878, 0.00000000
1, 7.1000, 355, -0.84368223, -0.40944552, 0.39808443, -1.92679286, 60.17898178, 29.46328354, -12.40173149, 3.20738029, 32.97161102, 126.64545441, -55.82850266, -139.48716736, -0.52979898, 0.07618836, -0.81352043, -0.22736099, 0.02223899, -0.04472021, -0.05322054, 101.82800293, -41.78712845, 23.27999878, 0.00000000
1, 7.1200, 356, -0.84563208, -0.36843008, 0.36673623, -13.15762138, 80.22457123, 29.98265076, -13.21391487, 3.03701401, 32.54705429, 124.89401245, -57.28178787, -137.73849487, -0.54273272, 0.07369468, -0.80571121, -0.22547683, 0.01152997, -0.07864178, -0.04371486, 101.82800293, -41.78712845, 23.27999878, 0.00000000
1, 7.1400, 357, -0.83613187, -0.30200729, 0.26383790, -31.64370155, 112.28337860, 41.59849548, -14.20013809, 2.89504123, 31.72826195, 121.96862793, -59.21840286, -135.05126953, -0.56045938, 0.06918501, -0.79416132, -0.22451426, -0.01395308, -0.13693114, 0.02696747, 101.82800293, -41.78712845, 23.27999878, 0.00000000
1, 7.1600, 358, -0.89972079, -0.44247708, 0.16182488, -27.31903648, 74.29109955, 43.51416779, -15.65046406, 2.80985713, 31.15207481, 120.05527496, -60.71358490, -133.43434143, -0.57254046, 0.06354394, -0.78642249, -0.22293350, 0.03362202, 0.01336174, 0.09445039, 101.82800293, -41.78712845, 23.27999878, 0.00000000
1, 7.1800, 359, -0.74721384, -0.37185764, 0.24701005, 24.47310829, 107.19548798, 52.03848267, -16.75271416, 3.83206058, 30.03002739, 117.81402588, -62.75930405, -130.27317810, -0.58994430, 0.06340400, -0.77638197, -0.21254833, -0.13213697, -0.04341698, -0.01423636, 101.82800293, -41.78712845, 23.27999878, 0.00000000
1, 7.2000, 360, -0.94427449, -0.34414771, 0.16436881, 35.79116440, 157.60150146, 50.76736069, -17.33284569, 4.42834520, 28.48341942, 113.60362244, -65.05553436, -124.79566956, -0.61262840, 0.06598017, -0.76163000, -0.20063110, 0.04584431, -0.05099725, 0.02674632, 101.82800293, -41.78712845, 23.27999878, 0.00000000
1, 7.2200, 361, -1.01509213, -0.29212245, 0.12940332, 31.16937447, 152.62600708, 61.29143524, -18.81217766, 4.71229076, 27.17941666, 108.91320801, -67.27667236, -119.03337097, -0.63394850, 0.06613955, -0.74714744, -0.18842928, 0.10002013, -0.08364610, 0.01644844, 101.82800293, -41.78712845, 23.27999878, 0.00000000
1, 7.2400, 362, -1.13372648, -0.32417047, 0.19596888, -32.17230606, 29.37614059, 22.97680664, -19.91442680, 5.16660309, 26.51225090, 107.51165771, -67.69081879, -118.39515686, -0.63727456, 0.06017288, -0.74396950, -0.19175455, 0.20786074, -0.03570142, -0.08084609, 101.82800293, -41.78712845, 23.27999878, 0.00000000
1, 7.2600, 363, -0.86102128, -0.16346620, 0.18452837, -143.24545288, -83.15438843, -99.81246185, -19.45032501, 4.22958374, 27.36136818, 106.89038086, -65.29283142, -120.81755066, -0.62445992, 0.05461535, -0.74681824, -0.22210248, -0.05702638, -0.21484146, -0.06649273, 101.82800293, -41.78712845, 23.27999878, 0.00000000
1, 7.2800, 364, -0.93803054, -0.28771493, 0.14374642, -101.39136505, -55.33443069, -79.42382813, -18.63813782, 0.79384583, 28.48341942, 106.12596893, -63.37910843, -122.27178192, -0.61456209, 0.05185664, -0.74802315, -0.24512386, 0.03623354, -0.12664172, -0.02123168, 101.82800293, -41.78712845, 23.27999878, 0.00000000
1, 7.3000, 365, -1.05127215, -0.43532693, 0.16238815, -136.16558838, -114.04990387, -94.68498993, -18.20304298, -0.17156687, 28.93830109, 106.66838837, -60.93393326, -125.98539734, -0.59608608, 0.04419662, -0.75347239, -0.27387509, 0.16729014, -0.01366341, -0.03250689, 101.82800293, -41.78712845, 23.27999878, 0.00000000
1, 7.3200, 366, -0.91759872, -0.47466013, 0.21528313, -133.17288208, -146.82797241, -75.76596069, -16.17258072, -2.49991822, 30.48491287, 108.05669403, -58.62383270, -130.65371704, -0.57384080, 0.03327510, -0.76130354, -0.30002719, 0.05370837, -0.00591048, -0.06483515, 101.82800293, -41.78712845, 23.27999878, 0.00000000
1, 7.3400, 367, -0.83054382, -0.46582320, 0.09671602, -113.99562836, -146.41362000, -75.95280457, -14.69324780, -3.74927759, 31.15207481, 109.45428467, -56.22691727, -134.97294617, -0.55041617, 0.02434594, -0.76940274, -0.32321623, -0.01239408, -0.04373783, 0.07557595, 101.82800293, -41.78712845, 23.27999878, 0.00000000
1, 7.3600, 368, -0.76955140, -0.54141521, 0.11590424, -85.90215302, -185.33612061, -81.04349518, -12.54676437, -5.96405029, 32.57738113, 111.88243103, -53.41345596, -140.05183411, -0.52083355, 0.01625200, -0.78154212, -0.34301639, -0.04792170, 0.00251753, 0.08690196, 101.82800293, -41.78712845, 23.27999878, 0.00000000
1, 7.3800, 369, -0.74309713, -0.72503442, 0.30021495, -63.76516342, -172.08134460, -38.92533112, -11.24146748, -7.12822580, 33.06259155, 114.34501648, -51.43701172, -144.67503357, -0.49564922, 0.00554042, -0.79275233, -0.35474655, -0.04820335, 0.16273730, -0.06032402, 101.82800293, -41.78712845, 23.27999878, 0.00000000
1, 7.4000, 370, -0.81652433, -0.47262147, 0.38809291, -37.30253601, -112.46505737, -8.28596592, -9.00796604, -8.15042877, 34.03301239, 115.93359375, -50.34167099, -147.75541687, -0.47968259, -0.00366659, -0.79971242, -0.36104202, 0.04090158, -0.09797770, -0.11830433, 101.82800293, -41.78712845, 23.27999878, 0.00000000
1, 7.4200, 371, -0.78766584, -0.53529298, 0.45401683, -74.61524963, -88.66710663, -6.77322245, -7.81869459, -8.23561192, 35.00343323, 116.20412445, -49.47019958, -150.09268188, -0.46704710, -0.01463825, -0.80203587, -0.37201005, 0.02322653, -0.04326180, -0.16960232, 101.82800293, -41.78712845, 23.27999878, 0.00000000
1, 7.4400, 372, -0.72670984, -0.57572907, 0.30933040, -68.42499542, -66.57161713, 2.34416842, -7.18055201, -8.51955795, 35.06408310, 116.19467163, -48.92435837, -151.87802124, -0.45788029, -0.02454055, -0.80275589, -0.38121718, -0.03017453, -0.01068515, -0.02081865, 101.82800293, -41.78712845, 23.27999878, 0.00000000
1, 7.4600, 373, -0.70858157, -0.64285141, 0.26455790, -58.99004745, -28.59336472, -8.66219807, -6.48439455, -10.05286217, 34.97310638, 115.47785950, -48.52272034, -152.48352051, -0.45323160, -0.02968661, -0.80098170, -0.39003599, -0.04284647, 0.04910753, 0.02322011, 101.82800293, -41.78712845, 23.27999878, 0.00000000
1, 7.4800, 374, -0.70999682, -0.59233785, 0.25216919, -31.64655304, -8.15376377, -4.89147472, -6.42637968, -10.36520195, 33.79040909, 114.99195862, -48.39700317, -152.64666748, -0.45177850, -0.03213406, -0.79951668, -0.39450815, -0.03791643, -0.00832627, 0.03036559, 101.82800293, -41.78712845, 23.27999878, 0.00000000
1, 7.5000, 375, -0.74461049, -0.58220142, 0.31662020, -24.11418343, 1.23297644, 5.75276518, -6.60042000, -10.16644001, 34.15431213, 114.48593903, -48.52709198, -152.68019104, -0.45230213, -0.03499897, -0.79750830, -0.39771637, -0.00369383, -0.02006513, -0.03856721, 101.82800293, -41.78712845, 23.27999878, 0.00000000
1, 7.5200, 376, -0.76458985, -0.55179137, 0.36397749, -50.05201340, 26.38455963, 0.79009748, -7.12253714, -10.93309212, 33.85105515, 112.88756561, -48.76681519, -151.92134094, -0.45589286, -0.03725582, -0.79169863, -0.40495321, 0.01417128, -0.05294980, -0.09726392, 101.82800293, -41.78712845, 23.27999878, 0.00000000
1, 7.5400, 377, -0.78767776, -0.59836918, 0.27846670, -62.56218719, 33.72244644, -1.34919703, -7.32558489, -12.46639633, 34.18463898, 110.94121552, -48.99295807, -150.99787903, -0.45986784, -0.03982276, -0.78464746, -0.41384080, 0.03422275, -0.01173877, -0.03343384, 101.82800293, -41.78712845, 23.27999878, 0.00000000
1, 7.5600, 378, -0.78066671, -0.59502381, 0.22560553, -58.03860855, 10.32226086, 11.58547592, -7.96372747, -12.12566185, 32.54705429, 109.67108917, -49.28829575, -150.87060547, -0.46156654, -0.04557782, -0.77955329, -0.42092243, 0.02446433, -0.01896211, 0.00058856, 101.82800293, -41.78712845, 23.27999878, 0.00000000
1, 7.5800, 379, -0.77945578, -0.58544064, 0.19908190, -47.06979370, -10.50383854, 19.09368515, -7.96372747, -12.46639633, 32.30445099, 109.14942169, -49.58203888, -151.39939880, -0.46107593, -0.05279013, -0.77688771, -0.42552057, 0.01973443, -0.02805346, 0.01642812, 101.82800293, -41.78712845, 23.27999878, 0.00000000
