SensorId, TimeStamp (s), FrameNumber, AccX (g), AccY (g), AccZ (g), GyroX (deg/s), GyroY (deg/s), GyroZ (deg/s), MagX (uT), MagY (uT), MagZ (uT), EulerX (deg), EulerY (deg), EulerZ (deg), QuatW, QuatX, QuatY, QuatZ, LinAccX (g), LinAccY (g), LinAccZ (g), Pressure (kPa), Altitude (m), Temperature (degC), HeaveMotion (m)
1,5.98,299,0.03149557,-0.03087121,-1.00261402,4.51806307,-1.90201962,195.5554199,29.77379608,-0.90982455,-21.189991,0.46916196,-1.39960742,104.4099426,0.61274844,-0.01216008,0.00424986,-0.79017311,-0.05544629,0.02263793,0.00293479,101.6260071,-25.02638626,26.46999931,0
1,6,300,0.00956298,0.00937334,-1.00039029,0.19784449,0.86939466,211.1706696,30.52796555,-3.15299273,-20.82608032,0.36506048,-1.41213095,108.6201553,0.58331954,-0.01186682,0.00460188,-0.81214309,-0.03425547,-0.01672578,0.00072233,101.6260071,-25.02638626,26.46999931,0
1,6.02,301,0.00389466,0.00709665,-1.0086906,-1.84618402,2.03375077,200.1702118,31.16611099,-5.62331629,-20.58347702,0.22616825,-1.40327764,112.6036606,0.55475539,-0.01128293,0.00515214,-0.83192104,-0.02846729,-0.01223281,0.00900587,101.6260071,-25.02638626,26.46999931,0
1,6.04,302,0.01901666,-0.03705999,-0.99933392,2.7339561,-1.20208514,196.5947266,30.84703827,-6.64551926,-20.43184853,0.17510612,-1.43053913,116.5589829,0.52571869,-0.01142209,0.00526379,-0.85056555,-0.0439994,0.03355757,-0.0003478,101.6260071,-25.02638626,26.46999931,0
1,6.06,303,0.01478252,-0.02117868,-1.00898981,-0.85429263,0.773947,215.5037231,31.19511604,-9.22942066,-20.15891457,0.06790917,-1.42335916,120.8912888,0.49320483,-0.01109701,0.00561109,-0.86982441,-0.03966016,0.0193638,0.00930108,101.6260071,-25.02638626,26.46999931,0
1,6.08,304,0.03229481,-0.01589363,-1.00156462,2.88033152,-0.3654567,230.367157,31.80425453,-10.90469837,-19.91630936,0.0127876,-1.43107581,125.5135269,0.45773241,-0.01115394,0.00561749,-0.88900238,-0.0571118,0.01499424,0.00187312,101.6260071,-25.02638626,26.46999931,0
1,6.1,305,0.02645743,-0.01160197,-0.99870235,-0.25450382,-0.16368121,240.0475922,32.03630447,-15.05029774,-20.00728607,-0.11536678,-1.42577183,130.3319092,0.41997042,-0.01086855,0.00613908,-0.90745199,-0.05129349,0.01214546,-0.00098888,101.6260071,-25.02638626,26.46999931,0
1,6.12,306,0.02594401,0.00087876,-1.00920177,0.66973662,1.37225401,250.2565613,32.26835632,-15.53300571,-19.6433754,-0.22787461,-1.39079416,135.34198,0.37991861,-0.01047115,0.00645035,-0.92493826,-0.05029815,0.00203438,0.00950279,101.6260071,-25.02638626,26.46999931,0
1,6.14,307,0.01509735,0.02196395,-1.00577962,1.62403774,0.689852,249.0118866,31.65922165,-19.39466095,-18.94588661,-0.31616297,-1.36228883,140.3070679,0.33950686,-0.01024518,0.00663093,-0.9405244,-0.0389226,-0.01724347,0.00607473,101.6260071,-25.02638626,26.46999931,0
1,6.16,308,-0.00120638,0.05569325,-1.00712848,3.49216008,-1.96855724,229.6599579,30.84703827,-23.54026031,-18.97621727,-0.34733504,-1.37076485,144.8622894,0.30186364,-0.01048901,0.00650018,-0.95327127,-0.02261355,-0.04968743,0.00743027,101.6260071,-25.02638626,26.46999931,0
1,6.18,309,-0.00311074,0.05032985,-0.99734396,0.26810953,1.59747398,199.1680756,30.2959137,-25.84021759,-18.73361206,-0.43978512,-1.31618071,148.8084412,0.26887202,-0.0100309,0.00678416,-0.9630999,-0.02033238,-0.04379121,-0.00235965,101.6260071,-25.02638626,26.46999931,0
1,6.2,310,0.00328035,-0.01962296,-0.99737906,4.63005829,-0.34706891,178.3361054,29.28068352,-28.65127563,-18.43035507,-0.45093587,-1.28466737,152.3801575,0.23872809,-0.00994718,0.00649712,-0.97101378,-0.02621877,0.02725903,-0.00232868,101.6260071,-25.02638626,26.46999931,0
1,6.22,311,0.00612726,-0.00721742,-1.01519763,-3.75477624,3.17050672,183.7537079,28.41049004,-29.84384727,-18.40002632,-0.59954911,-1.20005071,156.0605469,0.20743467,-0.00915935,0.00728985,-0.97817886,-0.0276366,0.01667482,0.015474,101.6260071,-25.02638626,26.46999931,0
1,6.24,312,0.01483973,-0.01399689,-1.00339329,1.3031404,-0.55646253,194.3054047,26.87314034,-33.62031937,-18.67296028,-0.65456903,-1.16988695,159.9649658,0.17399518,-0.00905963,0.00740061,-0.98467702,-0.03549161,0.02502635,0.00366738,101.6260071,-25.02638626,26.46999931,0
1,6.26,313,0.0225288,-0.03157592,-1.00527096,1.88456607,4.34772635,213.0217133,25.85791016,-36.4029808,-17.45993233,-0.71315736,-1.04898393,164.2598419,0.13697582,-0.00821546,0.00741796,-0.99051261,-0.04197513,0.04338145,0.00552995,101.6260071,-25.02638626,26.46999931,0
1,6.28,314,0.04069176,-0.03134201,-1.00018156,4.87036848,0.03164555,245.9212647,22.58016968,-38.98688126,-16.82309532,-0.70515865,-0.97341871,169.2135468,0.09403807,-0.00787844,0.00692457,-0.99551338,-0.05876351,0.04392252,0.00042417,101.6260071,-25.02638626,26.46999931,0
1,6.3,315,0.04934296,-0.01056616,-1.00207269,0.37464234,-1.44984496,279.1083069,18.49024773,-43.98432159,-16.73212051,-0.785164,-0.92178386,174.8101959,0.04532712,-0.00772535,0.00720873,-0.99891633,-0.06612377,0.02384371,0.00230173,101.6260071,-25.02638626,26.46999931,0
1,6.32,316,0.01836444,0.0499797,-1.00389636,1.28278971,-1.36671472,279.7930298,15.99568272,-47.53363419,-15.94364738,-0.84419352,-0.8752926,-179.6270142,-0.003199,-0.00766203,0.00734179,-0.99993861,-0.03402755,-0.03574445,0.0041204,101.6260071,-25.02638626,26.46999931,0
1,6.34,317,0.00146436,0.05021818,-0.99774259,2.77483559,-0.75605494,250.4653931,9.29516983,-50.34469223,-16.24690437,-0.87303185,-0.81272745,-174.653656,-0.04658277,-0.00743972,0.00727931,-0.99886024,-0.01636748,-0.0354748,-0.00203765,101.6260071,-25.02638626,26.46999931,0
1,6.36,318,0.00296473,0.02780443,-1.00767434,4.05591583,2.01091075,224.3430481,5.72736406,-51.67923737,-15.76169682,-0.85842216,-0.71213901,-170.1960144,-0.08540166,-0.00683175,0.0069325,-0.99629909,-0.01616802,-0.01271845,0.00787546,101.6260071,-25.02638626,26.46999931,0
1,6.38,319,0.01435066,-0.00166855,-1.00646818,2.4842515,4.15759373,213.1332245,-0.56705719,-53.95079803,-15.2461586,-0.86208302,-0.57803506,-165.9321137,-0.1224151,-0.00592742,0.00684861,-0.99243766,-0.02558267,0.01657917,0.00664269,101.6260071,-25.02638626,26.46999931,0
1,6.4,320,0.02777751,-0.01437671,-1.00415349,4.913764,0.39161393,222.5014496,-4.39592171,-55.71125793,-14.76095104,-0.80609077,-0.50013655,-161.4587097,-0.16106285,-0.00544061,0.00623936,-0.98690951,-0.0373271,0.02908545,0.00430749,101.6260071,-25.02638626,26.46999931,0
1,6.42,321,0.02999677,-0.00549567,-1.01211023,5.17791033,0.09619528,239.9716339,-12.80782318,-57.67047882,-14.57899952,-0.74118203,-0.43319306,-156.6512604,-0.20232008,-0.00501082,0.00556921,-0.97929084,-0.0379106,0.01913965,0.01223472,101.6260071,-25.02638626,26.46999931,0
1,6.44,322,0.01642396,0.01473797,-1.00639522,1.45034862,3.4044733,242.2296448,-23.30819321,-56.08038712,-14.66997528,-0.74117386,-0.30482459,-151.8103027,-0.24350572,-0.00415507,0.00562537,-0.96987432,-0.02294226,-0.00179671,0.00650039,101.6260071,-25.02638626,26.46999931,0
1,6.46,323,0.01915612,0.01538725,-0.99072737,-0.27190539,0.97056806,240.5164185,-28.21029854,-54.77423859,-14.03313065,-0.80465037,-0.21888499,-147.0035095,-0.28396609,-0.00382555,0.00619029,-0.95880681,-0.02386042,-0.00249647,-0.00917842,101.6260071,-25.02638626,26.46999931,0
1,6.48,324,0.00242112,0.02983312,-1.02274644,-6.36053705,2.18401599,235.5145874,-38.42060852,-50.82740021,-14.0634613,-0.92400134,-0.11379103,-142.3110809,-0.32298228,-0.00354422,0.0073104,-0.94637018,-0.00529989,-0.01400723,0.02287609,101.6260071,-25.02638626,26.46999931,0
1,6.5,325,0.00529565,0.03319006,-0.99944246,5.74291229,-0.34248716,223.0207977,-43.43873978,-48.86817932,-14.45769405,-0.82563668,-0.04977502,-137.870575,-0.35941029,-0.00299496,0.00656738,-0.93315184,-0.00699862,-0.01795636,-0.00043989,101.6260071,-25.02638626,26.46999931,0
1,6.52,326,-0.00271465,0.03164498,-0.99419343,5.63724375,1.58759129,201.6482391,-52.28574371,-43.24606323,-13.48727036,-0.73788631,0.04171083,-133.8644714,-0.39181396,-0.00218813,0.00606698,-0.92002195,0.00245709,-0.0182312,-0.00571629,101.6260071,-25.02638626,26.46999931,0
1,6.54,327,0.0102279,0.001023,-1.01106858,-4.90991068,2.10808587,190.2742767,-58.72519302,-35.77830505,-14.18475914,-0.81396967,0.13776948,-130.0475006,-0.42223969,-0.00190945,0.00694652,-0.90645558,-0.00869395,0.01287048,0.0111664,101.6260071,-25.02638626,26.46999931,0
1,6.56,328,0.01844259,-0.00300165,-0.99977106,1.55314791,-0.79189175,200.913269,-61.85790634,-31.57591248,-13.88151073,-0.7766819,0.18566993,-126.0178375,-0.4538509,-0.00163235,0.00677486,-0.89105034,-0.01558469,0.01673197,-0.00013056,101.6260071,-25.02638626,26.46999931,0
1,6.58,329,0.02286313,-0.01163489,-1.00412345,0.85903692,1.01864505,209.0366364,-65.83179474,-22.46126938,-14.94290161,-0.7325533,0.27276376,-121.7947464,-0.48637778,-0.00102949,0.00674329,-0.87372196,-0.01891391,0.02498013,0.00422036,101.6260071,-25.02638626,26.46999931,0
1,6.6,330,0.05557121,-0.04109294,-1.01860404,8.72853756,1.84030211,251.2033386,-68.29734802,-17.29346466,-15.03387737,-0.52210963,0.36493412,-116.7147903,-0.52462363,0.00032089,0.00554959,-0.85131615,-0.04969341,0.05217407,0.01868315,101.6260071,-25.02638626,26.46999931,0
1,6.62,331,0.06730967,-0.03708199,-0.99194491,4.84411955,3.56193233,296.8517761,-69.3996048,-3.52212167,-15.61006832,-0.41439617,0.47471064,-110.7335053,-0.56832534,0.00135336,0.0053298,-0.82278562,-0.05986349,0.0444494,-0.00799993,101.6260071,-25.02638626,26.46999931,0
1,6.64,332,0.05205924,0.00598754,-1.01450849,-7.9619298,3.4300034,326.1755676,-67.83325195,3.86045575,-16.36820984,-0.47906926,0.59278715,-104.1863785,-0.61438268,0.00151306,0.0064767,-0.78898013,-0.04289829,0.00259909,0.01458777,101.6260071,-25.02638626,26.46999931,0
1,6.66,333,0.05385094,0.02221546,-0.97700876,5.72322607,-1.24375999,341.0903015,-61.79988861,17.80216789,-17.39927864,-0.32803163,0.63792956,-97.36333466,-0.66024131,0.00229107,0.00582546,-0.75102752,-0.0435147,-0.01578356,-0.02291674,101.6260071,-25.02638626,26.46999931,0
1,6.68,334,0.04893874,0.01699529,-1.03502476,-3.48452497,2.36125612,343.1531067,-51.29951477,27.37112045,-19.73435974,-0.27064127,0.71972549,-90.49292755,-0.70405346,0.0027974,0.00609917,-0.71011537,-0.03670803,-0.01076473,0.03511916,101.6260071,-25.02638626,26.46999931,0
1,6.7,335,0.06262572,0.02979355,-0.99172038,4.33753443,2.10916805,345.7356262,-45.38218307,31.40314293,-20.91705513,-0.12799346,0.76004231,-83.58346558,-0.74556041,0.00358735,0.00568941,-0.66640413,-0.04943822,-0.02735362,-0.0081894,101.6260071,-25.02638626,26.46999931,0
1,6.72,336,0.02495375,0.07658774,-1.01104426,-3.61207104,1.1057024,336.5838928,-34.21465683,33.53273392,-22.34236526,-0.09758829,0.79500592,-76.88436127,-0.78322065,0.00364632,0.0059633,-0.62170464,-0.01145487,-0.07418637,0.01113833,101.6260071,-25.02638626,26.46999931,0
1,6.74,337,-0.00457574,0.10152169,-0.99763197,-0.62131983,-0.67939949,300.5219116,-29.39957428,34.24259567,-23.22180557,-0.01424361,0.79703236,-70.93423462,-0.81442964,0.00393451,0.00573691,-0.58022076,0.01812063,-0.1002701,-0.00227547,101.6260071,-25.02638626,26.46999931,0
1,6.76,338,-0.00216527,0.08254223,-0.99525195,1.73668885,1.08936954,254.2928162,-21.97389221,34.15741348,-24.07092285,0.0862264,0.82219863,-65.89949036,-0.83912337,0.0045339,0.0056116,-0.54389346,0.01616896,-0.0833959,-0.00464952,101.6260071,-25.02638626,26.46999931,0
1,6.78,339,-0.02082292,0.08763326,-1.00922024,0.97522599,-0.00467912,208.908493,-19.45032501,33.27718353,-24.98069382,0.17441265,0.81680936,-61.78097534,-0.85812187,0.00496557,0.00533545,-0.5133943,0.03512121,-0.08967316,0.00932459,101.6260071,-25.02638626,26.46999931,0
1,6.8,340,-0.01101523,0.06095271,-1.00106013,1.47572029,-0.33343649,160.507782,-15.04132843,33.05002594,-24.70775986,0.24407527,0.79346895,-58.62713242,-0.87192339,0.00524721,0.00499485,-0.48958877,0.0252465,-0.0648312,0.00116895,101.6260071,-25.02638626,26.46999931,0
1,6.82,341,-0.02649023,0.06111229,-1.00967145,-1.7183789,1.243572,109.2142868,-13.18490696,32.45373917,-25.95110893,0.24671428,0.80605501,-56.49590683,-0.88087672,0.00522568,0.00517742,-0.47328863,0.04066858,-0.06548321,0.00978141,101.6260071,-25.02638626,26.46999931,0
1,6.84,342,-0.02393705,0.05027211,-1.00180471,2.81585002,-0.31904465,61.87852478,-11.96663284,32.1414032,-25.37492561,0.30840039,0.79171294,-55.31235504,-0.88571602,0.00559063,0.00487039,-0.46416834,0.03792561,-0.05534663,0.00191554,101.6260071,-25.02638626,26.46999931,0
1,6.86,343,0.02305742,-0.11823675,-0.98993981,0.99071616,7.71587372,41.44629288,-11.18345642,31.60190773,-25.64785194,0.32853997,0.95849347,-54.31520081,-0.88970882,0.00636868,0.00613359,-0.45644304,-0.0086501,0.11282782,-0.00994141,101.6260071,-25.02638626,26.46999931,0
1,6.88,344,0.03770244,-0.04608475,-1.01683438,-3.53381395,-5.68089914,125.8935318,-10.28425121,31.43153954,-25.95110893,0.3377004,0.85859096,-51.75113297,-0.89970523,0.00592133,0.00545526,-0.43642372,-0.02221631,0.04146718,0.0169654,101.6260071,-25.02638626,26.46999931,0
1,6.9,345,0.03081216,-0.03360265,-0.99326628,-1.6608516,-2.17113256,154.2424164,-8.13776779,28.87603188,-26.52729988,0.35056725,0.81232351,-48.61952209,-0.9112972,0.00570617,0.00520085,-0.41167703,-0.01638969,0.02734034,-0.00661011,101.6260071,-25.02638626,26.46999931,0
1,6.92,346,0.02544904,-0.01566488,-1.0146569,-1.09571528,1.90629363,184.1827393,-6.22333574,28.81924438,-26.67892838,0.39832196,0.82955712,-44.89090347,-0.92420405,0.00597652,0.00536361,-0.38181451,-0.01096375,0.00937824,0.0147816,101.6260071,-25.02638626,26.46999931,0
1,6.94,347,0.070627,-0.08013842,-0.99965852,0.47259268,0.75296134,235.5091705,-4.19287777,27.42791176,-27.40674019,0.47173646,0.80163759,-40.09932327,-0.93935513,0.00626538,0.00516023,-0.34285018,-0.05620769,0.0723117,-0.00020684,101.6260071,-25.02638626,26.46999931,0
1,6.96,348,0.06726784,-0.03998205,-0.99572164,-0.03977468,-0.81962842,291.4262695,-1.40824771,25.38350487,-27.43707085,0.54525203,0.74462634,-34.21198654,-0.95572221,0.00645893,0.00481096,-0.29416022,-0.0539274,0.03108435,-0.00414968,101.6260071,-25.02638626,26.46999931,0
1,6.98,349,0.05070803,-0.01469083,-1.01606846,0.54138923,0.78959274,329.0645752,-0.59606457,24.16254044,-27.46739388,0.65107018,0.69519013,-27.60110092,-0.97109032,0.00696464,0.00453613,-0.23856796,-0.03809149,0.00484608,0.01619672,101.6260071,-25.02638626,26.46999931,0
1,7,350,0.06132158,0.04688041,-1.0054816,6.06576157,-0.36324009,348.8386841,1.43439329,21.55024529,-28.01325417,0.8570565,0.60287714,-20.6216526,-0.98380315,0.00829992,0.0038373,-0.17901929,-0.05004071,-0.05979306,0.00562915,101.6260071,-25.02638626,26.46999931,0
1,7.02,351,0.05388939,0.05862058,-0.99806947,-0.55965722,-1.01873553,342.4994507,2.85571575,20.10212135,-27.83130455,0.92069191,0.48457259,-13.80613804,-0.99270594,0.00848438,0.00323224,-0.12021876,-0.04436848,-0.07436216,-0.00176113,101.6260071,-25.02638626,26.46999931,0
1,7.04,352,0.03199628,0.05881996,-1.00694895,4.48444223,0.11257411,310.6167908,4.04498291,19.22189331,-28.49847031,1.04851019,0.37860543,-7.63058758,-0.99773455,0.00934935,0.00268766,-0.06656723,-0.02443254,-0.07603347,0.00712605,101.6260071,-25.02638626,26.46999931,0
1,7.06,353,0.04089552,-0.02081124,-0.99069762,-1.61030126,0.1620452,294.4978638,4.59610748,18.11450577,-28.31651115,1.04131651,0.28415605,-1.74023294,-0.99983996,0.00912365,0.00234134,-0.01520766,-0.03547533,0.00231901,-0.00911661,101.6260071,-25.02638626,26.46999931,0
1,7.08,354,0.03853026,0.04021929,-1.0195874,-0.37984726,0.19039184,292.1022034,6.36550713,17.85895538,-27.40674019,1.07486439,0.18352084,4.08697081,-0.99931937,0.00931674,0.0019349,0.03564135,-0.03413743,-0.05841212,0.01976285,101.6260071,-25.02638626,26.46999931,0
1,7.1,355,0.02922545,0.08216351,-0.99896365,2.79011369,1.72113574,274.669281,7.61278915,17.5466156,-27.52804756,1.12800527,0.10230046,9.53273773,-0.99649388,0.00973532,0.00170754,0.08308007,-0.02650207,-0.10176008,-0.00084053,101.6260071,-25.02638626,26.46999931,0
1,7.12,356,0.01990009,0.01527443,-1.01008916,5.0168848,2.02445865,240.7071533,8.0478878,16.80835915,-27.58869934,1.23066747,0.03225483,14.32319736,-0.99214166,0.01062052,0.00161812,0.12465803,-0.01858309,-0.03563314,0.01029756,101.6260071,-25.02638626,26.46999931,0
1,7.14,357,0.02956852,-0.0460685,-1.00013757,0.90306312,1.36650252,233.9252625,9.41119576,17.37625122,-27.13381386,1.24918461,-0.03360026,19.03090668,-0.98618197,0.01079946,0.00151291,0.16530688,-0.02971984,0.02449931,0.00037026,101.6260071,-25.02638626,26.46999931,0
1,7.16,358,0.04607257,-0.02009612,-1.01586306,-1.10867715,0.41973668,262.5014038,9.17914486,16.52441406,-27.80097389,1.22009456,-0.14925411,24.31529427,-0.97751266,0.01068262,0.0009691,0.21060359,-0.04734862,-0.00143156,0.01609579,101.6260071,-25.02638626,26.46999931,0
1,7.18,359,0.04066647,0.04402418,-1.01284385,-0.03211775,1.99740016,280.3634338,11.35463524,15.01950264,-26.25436592,1.21072507,-0.249541,29.90881729,-0.96606934,0.01076942,0.00062261,0.25805748,-0.04394003,-0.06508098,0.01307099,101.6260071,-25.02638626,26.46999931,0
1,7.2,360,0.03534555,0.06026354,-0.97893357,3.56572437,-0.53595388,264.8487854,13.29807472,14.76395226,-25.73883629,1.23053825,-0.35810629,35.17107391,-0.95319724,0.0111805,0.00026548,0.30214223,-0.04129687,-0.08207611,-0.02081068,101.6260071,-25.02638626,26.46999931,0
1,7.22,361,0.01130273,0.03996171,-1.01383519,3.50525713,-1.07294321,235.4806976,13.79118443,15.24666119,-26.10273743,1.27027929,-0.4753111,39.84586716,-0.94007039,0.01183486,-0.00012212,0.34077513,-0.01860589,-0.06131828,0.01409025,101.6260071,-25.02638626,26.46999931,0
1,7.24,362,0.01417129,0.01798335,-1.00710738,-2.06379604,0.98501545,212.2097321,15.41555309,14.45161152,-25.192976,1.20426631,-0.54570895,44.06725693,-0.92688346,0.0115278,-0.00047172,0.37517205,-0.02298219,-0.03956646,0.00737923,101.6260071,-25.02638626,26.46999931,0
1,7.26,363,0.02434888,-0.01167136,-1.00555527,-0.70245028,1.01565802,202.0004273,16.05369568,13.65656662,-24.98069382,1.14794159,-0.61826247,48.11288452,-0.91306329,0.01134652,-0.00084303,0.40765923,-0.03438204,-0.00926915,0.00582497,101.6260071,-25.02638626,26.46999931,0
1,7.28,364,0.02453786,-0.01420154,-0.99740964,4.03527308,-0.06881726,212.1331177,17.62005043,12.12326241,-24.37417984,1.18376887,-0.68484151,52.37859726,-0.8972497,0.01190694,-0.00080352,0.44136205,-0.03607903,-0.0060893,-0.00231774,101.6260071,-25.02638626,26.46999931,0
1,7.3,365,0.02046348,0.0406993,-1.02704406,-0.90737951,-1.94393671,219.8899689,18.11316109,11.95289421,-24.49548531,1.13789403,-0.81358027,56.74724197,-0.87976855,0.0121105,-0.00152782,0.47524571,-0.03308734,-0.06051602,0.02732051,101.6260071,-25.02638626,26.46999931,0
1,7.32,366,-0.00437842,0.07689566,-0.99434817,0.73366737,0.70939004,184.0716248,19.21541023,11.2998209,-24.22255135,1.08621764,-0.86821347,60.37211227,-0.86429751,0.01200267,-0.00178289,0.50283444,-0.01058615,-0.09681349,-0.00534132,101.6260071,-25.02638626,26.46999931,0
1,7.34,367,-0.01997283,0.0563459,-1.00315547,2.08727813,0.33381927,130.7789764,20.08560753,10.67514133,-24.34385681,1.08465385,-0.9046942,62.92673111,-0.8528704,0.01219392,-0.00179355,0.52197725,0.00428766,-0.07522082,0.00345674,101.6260071,-25.02638626,26.46999931,0
1,7.36,368,0.02266696,-0.08256767,-1.00311208,0.70483649,3.60830593,110.3293304,20.72375107,10.36280155,-23.88897133,1.0610466,-0.88658267,65.18767548,-0.8424105,0.01196826,-0.00153045,0.53870118,-0.03824211,0.06372137,0.00341103,101.6260071,-25.02638626,26.46999931,0
1,7.38,369,0.04770041,-0.05800909,-1.00630045,1.10864842,-2.34921789,160.9555359,21.65196228,8.57394695,-23.67669106,1.03286231,-0.99493194,68.451828,-0.82671762,0.01233538,-0.00210906,0.56247795,-0.06401599,0.03986346,0.00659837,101.6260071,-25.02638626,26.46999931,0
1,7.4,370,0.02469751,-0.01357624,-1.00729179,-0.82347208,1.41241205,191.4723358,21.9710331,8.85789108,-23.07017708,0.94353878,-1.04185367,72.30207062,-0.80735999,0.01201145,-0.00248396,0.58993173,-0.04233891,-0.0039517,0.0076012,101.6260071,-25.02638626,26.46999931,0
1,7.42,371,0.0273842,-0.00195044,-1.00467587,3.22888923,0.16830218,205.3647919,23.59539986,7.2110095,-23.10050011,0.92591572,-1.11220801,76.41340637,-0.7856735,0.01235165,-0.00262906,0.61851251,-0.04615599,-0.01435483,0.00498509,101.6260071,-25.02638626,26.46999931,0
1,7.44,372,0.00557836,0.0317206,-1.00503516,-0.86590588,1.00324667,202.6663971,24.34956932,6.78509092,-22.7062664,0.83549064,-1.15188038,80.44564819,-0.7634328,0.0120576,-0.00296681,0.64576787,-0.0254258,-0.04697355,0.00534863,101.6260071,-25.02638626,26.46999931,0
1,7.46,373,0.01150878,-0.00286225,-0.99680591,1.29430139,-1.55166423,191.3946228,24.95870972,4.68389559,-22.73659706,0.78254205,-1.22620118,84.27937317,-0.74140275,0.0122426,-0.00335277,0.67094034,-0.03244991,-0.01121806,-0.00287557,101.6260071,-25.02638626,26.46999931,0
1,7.48,374,0.01664667,-0.0093024,-1.01657641,1.24466395,1.55253065,193.4813995,26.06095886,3.54811478,-22.6152916,0.72600758,-1.25500059,88.15879059,-0.71827096,0.01216951,-0.00346021,0.69564849,-0.03804246,-0.0037234,0.01689018,101.6260071,-25.02638626,26.46999931,0
1,7.5,375,0.01164694,-0.00608612,-0.99932843,-0.66479808,0.02125517,196.6899414,26.4960556,2.24196768,-22.4636631,0.62415129,-1.29976618,92.09341431,-0.69397259,0.01194547,-0.00395142,0.71989155,-0.03413627,-0.00572477,-0.00034877,101.6260071,-25.02638626,26.46999931,0
1,7.52,376,0.0241944,-0.01591173,-1.00159085,1.26678145,-1.50261211,198.0592499,27.71433258,1.19136906,-21.34161949,0.5531382,-1.36061537,96.06453705,-0.66861463,0.01205563,-0.004351,0.74349862,-0.04754597,0.00544829,0.00191835,101.6260071,-25.02638626,26.46999931,0
1,7.54,377,0.02018062,-0.0050882,-1.00570214,-0.41748214,-0.2341713,204.4865418,27.56929779,-0.37032849,-21.8268261,0.44226852,-1.39853334,100.1593781,-0.64163315,0.01183634,-0.00487186,0.76690495,-0.04422328,-0.00371012,0.00603015,101.6260071,-25.02638626,26.46999931,0
1,7.56,378,0.01845535,0.00678563,-1.00637281,-2.57782698,-0.18672541,205.8878479,28.2944622,-1.67647743,-20.82608032,0.29401153,-1.43750739,104.2695084,-0.61373103,0.01147787,-0.00567437,0.78941143,-0.04309652,-0.01314408,0.00669698,101.6260071,-25.02638626,26.46999931,0
1,7.58,379,0.00442839,0.01736025,-1.00574493,-0.71324801,-1.51206577,196.5010681,29.01962471,-3.06780863,-21.189991,0.17815986,-1.48561096,108.1819992,-0.58643353,0.01141197,-0.00634424,0.80989212,-0.0299742,-0.02152432,0.00608014,101.6260071,-25.02638626,26.46999931,0
1,7.6,380,0.00424808,-0.03220853,-0.99823856,-6.70206356,0.24038695,188.9847107,29.71578217,-4.74308538,-20.91705513,-0.04991287,-1.48036063,111.9694595,-0.55937201,0.01046412,-0.00758764,0.82881594,-0.03031843,0.03095476,-0.00142019,101.6260071,-25.02638626,26.46999931,0
1,7.62,381,0.01906087,-0.04198574,-1.01019609,2.63004708,1.64241874,201.6245575,30.0928669,-7.69611597,-20.70477486,-0.11442557,-1.45739329,116.0323868,-0.52964753,0.01025834,-0.00758326,0.84812188,-0.04446211,0.04344194,0.0105198,101.6260071,-25.02638626,26.46999931,0
1,7.64,382,0.02322526,-0.00643494,-1.00297296,1.2427547,0.66560549,219.5133514,30.84703827,-8.88868713,-20.82608032,-0.19298723,-1.43437362,120.4340057,-0.49669543,0.01002713,-0.00767893,0.86783314,-0.04861107,0.00951074,0.00330002,101.6260071,-25.02638626,26.46999931,0
1,7.66,383,0.02444397,-0.03516999,-1.0007019,0.57392204,-3.2159481,225.8078613,30.49896049,-12.66515827,-20.00728607,-0.30467474,-1.47969866,124.9561157,-0.46207887,0.01022266,-0.00832438,0.88674086,-0.04991085,0.03934181,0.00103513,101.6260071,-25.02638626,26.46999931,0
1,7.68,384,0.0136911,-0.07678552,-0.99939513,-1.47136116,1.729285,234.1247711,31.51418877,-13.20465374,-19.58273125,-0.4515883,-1.41897619,129.6723023,-0.42521685,0.00953178,-0.0088317,0.90499824,-0.03906756,0.08347446,-0.00026028,101.6260071,-25.02638626,26.46999931,0
1,7.7,385,0.03843019,-0.03367422,-1.001472,2.69150972,-0.6284706,262.7950745,30.78902435,-16.55520821,-19.00653839,-0.52656728,-1.38484049,134.9613953,-0.38301429,0.00940335,-0.0088728,0.92365193,-0.06300183,0.04210552,0.00180953,101.6260071,-25.02638626,26.46999931,0
1,7.72,386,0.05339672,0.07047711,-1.00253081,7.66820621,-2.96355796,277.6153565,31.4271698,-21.92177391,-18.97621727,-0.52391547,-1.38787699,140.5118713,-0.33784339,0.00985469,-0.00839427,0.94111335,-0.07771063,-0.06129271,0.00286874,101.6260071,-25.02638626,26.46999931,0
1,7.74,387,0.03811233,0.06238911,-1.00581348,-1.42023814,-0.78953779,272.5520935,30.64399147,-23.31310654,-18.40002632,-0.67495865,-1.35471284,145.9481964,-0.2928454,0.00957898,-0.00909297,0.95606858,-0.06189549,-0.05176136,0.006153,101.6260071,-25.02638626,26.46999931,0
1,7.76,388,0.01962641,0.01277014,-0.9932068,-4.1529088,0.42430326,261.385437,30.0928669,-27.74265099,-18.88524055,-0.88804346,-1.27302778,151.1522827,-0.24915414,0.0088283,-0.01027193,0.96836919,-0.04285828,0.00051335,-0.00643444,101.6260071,-25.02638626,26.46999931,0
1,7.78,389,0.01556396,0.01554926,-1.00619352,0.36736968,0.55205292,242.2922669,29.97684097,-30.07100296,-18.61230659,-0.99282682,-1.18209469,155.9871063,-0.2080908,0.0082873,-0.01061974,0.97801673,-0.03698937,0.00086581,0.0065579,101.6260071,-25.02638626,26.46999931,0
1,7.8,390,0.01803733,0.01763401,-1.01002598,4.55574751,-0.64941186,238.0130768,28.12042236,-34.52894211,-17.61156082,-0.99541193,-1.11068201,160.7575226,-0.16720362,0.00810393,-0.01018378,0.98583651,-0.03800964,0.00001707,0.0103813,101.6260071,-25.02638626,26.46999931,0
1,7.82,391,0.02179553,-0.01507543,-1.00553167,0.75293183,-0.05974479,253.5104981,26.20599174,-38.3338089,-17.06570053,-1.07258403,-1.01971757,165.8490295,-0.12324975,0.00767756,-0.01038433,0.99229175,-0.04061722,0.03317664,0.00587289,101.6260071,-25.02638626,26.46999931,0
1,7.84,392,0.03659464,-0.00337507,-1.00381088,0.28505912,-0.84373975,270.9984436,23.68241882,-42.39422607,-16.51983833,-1.16450346,-0.92443216,171.2829132,-0.0760735,0.00727109,-0.01074537,0.99701786,-0.05376308,0.02282881,0.00414773,101.6260071,-25.02638626,26.46999931,0
1,7.86,393,0.03904337,0.05569213,-1.00374913,5.1042819,-1.94635952,268.9056702,19.27342224,-48.15831375,-16.27723503,-1.15686297,-0.85366333,176.6326904,-0.02945448,0.00714934,-0.01030959,0.99948746,-0.05465791,-0.03538207,0.00407734,101.6260071,-25.02638626,26.46999931,0
1,7.88,394,0.02355366,0.04492791,-1.00161433,0.95261669,0.48072019,251.5299835,16.54680824,-51.31010818,-15.79201889,-1.19216514,-0.73238552,-178.3613281,0.01423266,0.00653899,-0.01031075,0.99982423,-0.03761208,-0.02404979,0.00193131,101.6260071,-25.02638626,26.46999931,0
1,7.9,395,0.01585093,0.01409731,-0.99964166,2.79383826,-3.44207454,233.9740448,11.29662228,-55.42731094,-15.33713436,-1.187971,-0.6873883,-173.6983032,0.05489948,0.00655897,-0.01002126,0.99842006,-0.02846622,0.00680869,-0.00006028,101.6260071,-25.02638626,26.46999931,0
1,7.92,396,0.00553241,-0.0025657,-1.01209795,5.63983202,-1.89641976,220.5119782,7.5547781,-58.35194778,-15.18550587,-1.1112498,-0.63562107,-169.298584,0.09319294,0.00642667,-0.0091377,0.99558544,-0.0169276,0.02306825,0.01237317,101.6260071,-25.02638626,26.46999931,0
1,7.94,397,0.02140882,-0.03186729,-0.99936968,9.55873489,-3.9875958,215.7396393,1.20234203,-62.38397217,-13.85118008,-0.98190665,-0.63129503,-164.9864197,0.13059066,0.00658107,-0.00777538,0.99138409,-0.03257909,0.04979142,-0.0004072,101.6260071,-25.02638626,26.46999931,0
1,7.96,398,0.01667179,-0.01491325,-1.00127125,-0.01730402,1.19446921,214.3809052,-2.74254799,-64.79750824,-12.78978062,-1.03529882,-0.54331583,-160.7046814,0.16753836,0.00618814,-0.00811212,0.98581278,-0.02694879,0.03231283,0.00147569,101.6260071,-25.02638626,26.46999931,0
1,7.98,399,0.02760535,0.03314211,-0.9971832,-1.09443533,2.53202105,212.425705,-12.63378239,-70.05049896,-12.57750702,-1.09660673,-0.4251017,-156.4601593,0.20393717,0.00558355,-0.0086116,0.97893018,-0.03605771,-0.01469487,-0.00261062,101.6260071,-25.02638626,26.46999931,0
1,8,400,0.02713137,0.0521785,-1.01874685,1.98511529,0.09988201,209.2656403,-23.51123619,-72.23686981,-11.2431736,-1.08264041,-0.34911248,-152.2814026,0.23949915,0.00522082,-0.00844284,0.97084588,-0.03363144,-0.03298948,0.01895222,101.6260071,-25.02638626,26.46999931,0
1,8.02,401,0.02032191,0.03336409,-1.00466681,0.07938663,2.12196183,202.8134155,-29.92169189,-72.71957397,-11.8193655,-1.10682058,-0.24080299,-148.2356415,0.27362758,0.00466428,-0.00871491,0.96178496,-0.02533067,-0.01434787,0.00486036,101.6260071,-25.02638626,26.46999931,0
1,8.04,402,0.01363963,0.02905548,-0.99700558,2.04470491,0.53911078,199.1334534,-41.55331802,-71.72576904,-11.42513275,-1.08882916,-0.14873305,-144.2624817,0.30681226,0.00415075,-0.00864509,0.95172185,-0.0172619,-0.01000375,-0.00280631,101.6260071,-25.02638626,26.46999931,0
1,8.06,403,-0.0074338,0.06065096,-1.01061857,-2.97266555,0.20649347,183.4573059,-47.38363266,-70.36283112,-11.33414936,-1.15409827,-0.09010266,-140.6465607,0.33668846,0.00413146,-0.0092184,0.941562,0.00575112,-0.04109297,0.01081133,101.6260071,-25.02638626,26.46999931,0
1,8.08,404,-0.01776526,0.07414575,-0.99871355,2.4443357,-0.23855039,141.0279083,-57.2748642,-66.58636475,-11.12187576,-1.11732829,-0.04356777,-137.8910065,0.35923555,0.00385768,-0.00896284,0.93319595,0.01651547,-0.05450553,-0.0010927,101.6260071,-25.02638626,26.46999931,0
1,8.1,405,-0.03637639,0.04514872,-0.99651897,0.44949886,-0.02713082,91.58744812,-59.56638718,-65.56416321,-11.30382633,-1.10533416,0.00420422,-136.1067352,0.37372622,0.00357099,-0.00896042,0.92748898,0.03580073,-0.02564733,-0.0032907,101.6260071,-25.02638626,26.46999931,0
1,8.12,406,-0.01531765,0.01285848,-1.00947535,-2.03473163,1.8478657,66.37028503,-63.97537231,-62.185215,-10.60633755,-1.14629114,0.07355779,-134.7854157,0.3843998,0.00325277,-0.00948122,0.92311233,0.01617185,0.0068209,0.00966952,101.6260071,-25.02638626,26.46999931,0
1,8.14,407,0.0116353,-0.05022391,-1.00153756,1.92800009,1.87645197,76.44641876,-68.5874176,-60.25438309,-10.90959454,-1.10770178,0.14369662,-133.1813507,0.3972899,0.0026897,-0.0093689,0.9176414,-0.00970788,0.06980715,0.00173131,101.6260071,-25.02638626,26.46999931,0
1,8.16,408,0.02944752,-0.05586474,-1.00529599,1.56795025,0.78377247,133.4739075,-72.18423462,-57.38653564,-10.69731331,-1.06289279,0.22018227,-130.4503326,0.41905108,0.00214234,-0.00922681,0.90791333,-0.0263767,0.07501252,0.00548406,101.6260071,-25.02638626,26.46999931,0
1,8.18,409,0.02572823,-0.03041505,-1.00741947,2.1325953,-1.5186013,175.7999268,-80.56712341,-50.74221802,-10.75796604,-1.00171721,0.26447228,-126.8895645,0.44706014,0.00184358,-0.00885105,0.89445823,-0.02148836,0.04850648,0.00759217,101.6260071,-25.02638626,26.46999931,0
1,8.2,410,0.0259377,-0.02785127,-1.01703191,0.4357706,1.12170517,211.7340241,-84.715065,-45.65959549,-10.30308056,-0.95451552,0.34689578,-122.6087952,0.48015979,0.00134416,-0.00876006,0.87713629,-0.02015279,0.04515892,0.01719866,101.6260071,-25.02638626,26.46999931,0
1,8.22,411,0.05406217,-0.0205443,-0.99620229,2.56101251,0.87292898,249.7404938,-93.67810059,-32.34256363,-10.90959454,-0.88004375,0.45159769,-117.574852,0.51822168,0.00060936,-0.00861024,0.85520285,-0.0472352,0.03621906,-0.00365142,101.6260071,-25.02638626,26.46999931,0
1,8.24,412,0.01655484,0.0432709,-1.00892961,-2.51998472,-0.19841176,263.6828003,-98.60920715,-14.48240757,-11.42513275,-0.87856305,0.52826828,-112.3185959,0.55689317,0.00044061,-0.00893508,0.83053601,-0.00812399,-0.02757904,0.00908829,101.6260071,-25.02638626,26.46999931,0
1,8.26,413,-0.002766,0.07501761,-1.0010457,0.23003094,-2.44532561,237.4571381,-98.55120087,-6.67391396,-11.54643059,-0.82600665,0.56265312,-107.6233673,0.59044749,0.00029326,-0.00871655,0.80702901,0.01204527,-0.05995651,0.00120229,101.6260071,-25.02638626,26.46999931,0
1,8.28,414,-0.02003442,0.05587309,-0.99538577,2.29574966,-0.07383195,191.3194428,-96.54975128,5.28018236,-12.36522579,-0.73769575,0.63813847,-103.8406143,0.616763,-0.00041304,-0.00850178,0.78710288,0.0301227,-0.04210893,-0.00446853,101.6260071,-25.02638626,26.46999931,0
1,8.3,415,0.03806794,-0.05586713,-1.02335513,1.98324692,2.91677952,197.9650116,-95.67955017,12.71954727,-13.18401337,-0.63557231,0.73538834,-99.81591034,0.64402175,-0.00133743,-0.00837583,0.76496029,-0.02549816,0.06804387,0.02350839,101.6260071,-25.02638626,26.46999931,0
1,8.32,416,0.03798538,0.00470809,-0.99738014,2.33322382,-0.8217352,237.2043152,-89.18208313,25.15634918,-13.63889885,-0.53368556,0.77540123,-95.05162811,0.67525864,-0.00184608,-0.00800419,0.7375353,-0.02472989,0.00516007,-0.00248322,101.6260071,-25.02638626,26.46999931,0
1,8.34,417,0.02524436,0.00283956,-1.01295173,1.44684076,0.15989751,245.9961395,-84.48300934,30.75007057,-14.73062801,-0.4248946,0.8223778,-90.11868286,0.70637012,-0.0024607,-0.00769381,0.70779669,-0.01117082,0.00580695,0.01308829,101.6260071,-25.02638626,26.46999931,0
1,8.36,418,0.03273734,0.01004092,-0.99600661,0.07706568,0.87557042,255.3080597,-74.35972595,40.51778412,-15.03387737,-0.35046002,0.87364608,-84.9969635,0.73728633,-0.00289564,-0.00768712,0.67553055,-0.01778849,-0.00352942,-0.00386044,101.6260071,-25.02638626,26.46999931,0
1,8.38,419,0.01153927,0.04512804,-1.00817692,-1.02379107,-0.62361598,254.7789459,-61.74187469,48.66701889,-16.42886353,-0.27715108,0.89936358,-79.92012787,0.7664789,-0.00318683,-0.00756898,0.64221716,0.0039813,-0.03946417,0.00831349,101.6260071,-25.02638626,26.46999931,0
1,8.4,420,0.02181174,0.01869601,-1.0025295,0.81752485,0.27014783,242.0051422,-56.23062897,49.26330185,-17.30830383,-0.18298867,0.92730021,-75.07081604,0.79295808,-0.00366389,-0.00738973,0.6092205,-0.00571424,-0.014862,0.00266646,101.6260071,-25.02638626,26.46999931,0
1,8.42,421,0.02755967,-0.00251683,-1.00496256,-2.77651834,0.2762571,246.1909943,-44.83105469,51.93238449,-18.4606781,-0.15097052,0.95404607,-70.14253235,0.81841534,-0.00370557,-0.0075709,0.57456535,-0.01119094,0.00558251,0.00510127,101.6260071,-25.02638626,26.46999931,0
1,8.44,422,0.03534673,-0.00717302,-1.01237071,-1.13023591,1.49466646,252.8457794,-38.71067429,52.61385727,-19.6433754,-0.08300904,0.98336506,-65.04808807,0.84313816,-0.00400304,-0.00762498,0.53762817,-0.0183598,0.00936865,0.01251755,101.6260071,-25.02638626,26.46999931,0
1,8.46,423,0.03597845,0.03842804,-1.00732899,6.29707146,-2.83452272,274.6570129,-27.80421257,51.19412994,-20.31054306,0.14599249,0.932441,-59.56470108,0.86788398,-0.0051474,-0.00642944,0.49669859,-0.01940945,-0.03861533,0.00746673,101.6260071,-25.02638626,26.46999931,0
1,8.48,424,0.0147789,0.04483768,-0.98254299,0.3405861,0.61072075,256.6899109,-23.4532299,48.80899048,-21.189991,0.22184311,0.937971,-54.45085526,0.88917488,-0.00546609,-0.00639277,0.45749041,0.0011677,-0.04860249,-0.01732275,101.6260071,-25.02638626,26.46999931,0
1,8.5,425,0.04240308,-0.03024398,-1.01250231,-0.19479014,2.26464891,258.9151001,-15.04132843,46.11150742,-22.52431679,0.30100334,0.94869405,-49.23474884,0.90906656,-0.0058365,-0.00643218,0.41656044,-0.02563672,0.02563925,0.01265368,101.6260071,-25.02638626,26.46999931,0
1,8.52,426,0.04800295,-0.00371169,-1.00039589,-0.18653472,1.45751214,284.4747315,-8.54385948,43.18687439,-23.52506256,0.40563676,0.94610351,-43.5214119,0.92869204,-0.00634829,-0.00635555,0.37074307,-0.03153098,-0.00224982,0.00054947,101.6260071,-25.02638626,26.46999931,0
1,8.54,427,0.06736786,-0.0391214,-1.00222826,2.93925953,-1.38324368,309.6382141,-4.83102083,40.85852051,-23.10050011,0.55338562,0.87593883,-37.27131271,0.9475193,-0.00701843,-0.00569996,0.3195709,-0.05153494,0.03062789,0.00239,101.6260071,-25.02638626,26.46999931,0
1,8.56,428,0.06230355,-0.04486066,-1.01551747,-1.56983137,1.06560874,354.0007019,-0.30599862,35.5487442,-25.07166862,0.6622842,0.82081258,-30.14669228,0.96554208,-0.0074432,-0.00541337,0.26008421,-0.04725331,0.03468872,0.01568266,101.6260071,-25.02638626,26.46999931,0
1,8.58,429,0.09412466,-0.08949899,-0.99332374,4.74085903,-1.63864052,387.9775696,2.07254004,32.51053238,-25.49623108,0.83446479,0.68092728,-22.32728767,0.98102653,-0.00829454,-0.00441973,0.19364572,-0.08092178,0.07553963,-0.00649109,101.6260071,-25.02638626,26.46999931,0
1,8.6,430,0.09166287,-0.04078671,-1.01047206,0.91735005,-0.08460387,418.3504334,5.78537893,27.65506744,-26.04209328,0.94772208,0.54668403,-13.95900345,0.9925397,-0.00878865,-0.00373023,0.12154783,-0.08072206,0.02554513,0.0106485,101.6260071,-25.02638626,26.46999931,0
1,8.62,431,0.08158985,-0.00830453,-0.99975598,1.06242383,0.34547755,418.5961609,6.71358776,25.75263214,-27.1034832,1.03000987,0.39845878,-5.59020567,0.99876249,-0.00914722,-0.00303461,0.04879334,-0.073279,-0.00917108,-0.00005653,101.6260071,-25.02638626,26.46999931,0
1,8.64,432,0.08591784,0.03508354,-1.01864302,3.7635026,0.91319269,416.0357666,8.0478878,21.89097786,-26.01176262,1.15982282,0.24137628,2.71664476,0.99966609,-0.01006839,-0.00234563,-0.02368239,-0.08022577,-0.05376792,0.01883421,101.6260071,-25.02638626,26.46999931,0
1,8.66,433,0.09748254,0.03087789,-1.00168276,3.57285786,-0.94025213,405.742096,9.75927448,19.61941719,-26.49697876,1.24790049,0.0545087,10.79929256,0.99550396,-0.01079668,-0.00149829,-0.09409139,-0.09510665,-0.05218193,0.00191288,101.6260071,-25.02638626,26.46999931,0
1,8.68,434,0.08996888,0.08371355,-1.00632453,2.79582691,0.04442151,382.9873962,10.42642498,18.90955162,-25.79948044,1.29137909,-0.10789534,18.43574905,0.98702151,-0.01127445,-0.00087585,-0.1601893,-0.09041128,-0.1060731,0.00657495,101.6260071,-25.02638626,26.46999931,0
1,8.7,435,0.07695185,0.06779083,-1.01244867,-3.88910699,3.22020555,362.3614807,11.87675285,17.14909172,-25.95110893,1.20926511,-0.21487267,25.6399498,0.97501171,-0.0107056,-0.00051323,-0.22189493,-0.07961037,-0.08932519,0.01268426,101.6260071,-25.02638626,26.46999931,0
1,8.72,436,0.07329314,0.06954936,-1.00965154,14.67183971,-4.414011,322.8027344,12.57291031,16.52441406,-24.58646202,1.45334804,-0.44406974,32.04319,0.96105969,-0.01325928,0.00022407,-0.27602255,-0.07898284,-0.09273958,0.00993807,101.6260071,-25.02638626,26.46999931,0
1,8.74,437,0.06277784,0.08562858,-1.01510012,-3.20981407,1.26331162,284.211792,13.55913353,15.41702557,-24.34385681,1.35977721,-0.55122906,37.68732071,0.94630742,-0.01278348,0.0007197,-0.32301441,-0.07158952,-0.11012071,0.01543929,101.6260071,-25.02638626,26.46999931,0
1,8.76,438,0.05958457,0.12281349,-1.00498056,1.09170735,0.27351367,257.8036194,14.63237572,15.24666119,-24.55613136,1.32328022,-0.67153603,42.81682587,0.9308995,-0.01288952,0.00124058,-0.36504576,-0.07007962,-0.14661844,0.00531917,101.6260071,-25.02638626,26.46999931,0
1,8.78,439,0.02933818,0.04168118,-0.99853957,6.03855562,0.2584931,234.9207306,16.45978737,14.70716572,-24.28320503,1.36862922,-0.76935697,47.48809433,0.91523522,-0.0136352,0.00133625,-0.40268707,-0.04197957,-0.06531467,-0.00110101,101.6260071,-25.02638626,26.46999931,0
1,8.8,440,0.02146672,-0.05200149,-1.01484787,1.72554648,2.0060935,225.2189331,17.0399189,13.79853916,-23.55538559,1.35271919,-0.83038926,52.02154541,0.89858794,-0.01378613,0.00133544,-0.43857479,-0.03544351,0.02865111,0.01521833,101.6260071,-25.02638626,26.46999931,0
1,8.82,441,0.04549079,-0.03329562,-0.99747574,0.07759265,1.05495119,250.0323486,18.20018196,13.11707115,-23.55538559,1.28826284,-0.91967171,57.04579163,0.87849957,-0.01370922,0.00168305,-0.47754344,-0.06084267,0.0101888,-0.00213917,101.6260071,-25.02638626,26.46999931,0
1,8.84,442,0.06440384,0.02649398,-1.00762737,3.98674965,-0.72886044,267.5997925,20.1726265,12.43560219,-22.16040611,1.27120626,-1.05440009,62.40174484,0.85521483,-0.0142545,0.00212342,-0.51807338,-0.0814225,-0.04887988,0.00802296,101.6260071,-25.02638626,26.46999931,0
1,8.86,443,0.02688852,0.05704584,-1.02051938,-1.95051169,1.42219496,265.5138855,20.31765938,11.27142525,-23.07017708,1.14462221,-1.16435063,67.68193054,0.83044577,-0.01395402,0.00287669,-0.55691719,-0.04577217,-0.07800765,0.02091784,101.6260071,-25.02638626,26.46999931,0
1,8.88,444,-0.00450701,0.08173423,-0.9933427,2.01869774,-0.89592403,233.8744202,22.34811974,10.41959095,-22.25138092,1.07706141,-1.27105927,72.30903625,0.80728215,-0.01413207,0.00341076,-0.58998656,-0.01702863,-0.1013978,-0.00623196,101.6260071,-25.02638626,26.46999931,0
1,8.9,445,-0.00158497,0.02770716,-1.00497186,2.6492238,1.65318394,189.8672028,23.16030312,8.43197441,-21.64486694,1.03717327,-1.3134855,76.0666275,0.78750485,-0.01419023,0.00345168,-0.61613536,-0.0208272,-0.04631756,0.00539632,101.6260071,-25.02638626,26.46999931,0
1,8.92,446,-0.00353266,0.00391044,-1.0030427,0.15817173,0.61217797,163.8219147,23.59539986,7.92087173,-21.8268261,0.96446466,-1.36240113,79.32643127,0.76966411,-0.0140667,0.00378026,-0.6382829,-0.01989926,-0.02135471,0.00346957,101.6260071,-25.02638626,26.46999931,0
1,8.94,447,0.01015859,0.01324953,-0.99829543,1.43581343,-0.39338392,152.5350647,24.37857628,7.38137579,-21.22031212,0.9089973,-1.41283178,82.35983276,0.75250071,-0.01408729,0.00405655,-0.65842837,-0.03453813,-0.0297527,-0.00127107,101.6260071,-25.02638626,26.46999931,0
1,8.96,448,0.002701,-0.01976786,-1.00851238,-1.50691819,2.43942809,143.2402496,25.04572678,7.2961936,-21.31128883,0.82469469,-1.41513324,85.24465942,0.7356981,-0.01365731,0.00421361,-0.67715889,-0.02725826,0.00493886,0.00892408,101.6260071,-25.02638626,26.46999931,0
1,8.98,449,0.04839804,-0.12162226,-1.00115776,2.36649656,4.80404472,183.7113495,25.97393799,5.67770529,-20.97770882,0.7815423,-1.37276876,89.04632568,0.71284217,-0.01326193,0.00375875,-0.70118898,-0.07291527,0.10751821,0.00155786,101.6260071,-25.02638626,26.46999931,0
1,9,450,0.10602599,-0.12305781,-1.0085777,5.76445341,-0.45436513,283.756012,26.38002968,3.77527165,-21.189991,0.73872894,-1.46588445,94.81622314,0.67664182,-0.01377962,0.00391148,-0.73617303,-0.13055335,0.10943567,0.0089714,101.6260071,-25.02638626,26.46999931,0
1,9.02,451,0.07817154,-0.02082258,-0.99600601,-8.04433155,-0.13516049,351.1435547,28.38148117,1.9296267,-20.37119484,0.38646787,-1.54253113,101.8797302,0.63003999,-0.01257696,0.00586352,-0.77643871,-0.10449304,0.01068784,-0.0035948,101.6260071,-25.02638626,26.46999931,0
1,9.04,452,0.03262869,0.09282215,-1.02466726,3.38200688,-3.0706172,356.7032776,30.00584793,-1.39253175,-19.88598824,0.29205397,-1.63304698,108.9726791,0.58080691,-0.01307992,0.00620374,-0.81391269,-0.06031075,-0.09750625,0.02506181,101.6260071,-25.02638626,26.46999931,0
1,9.06,453,0.04257669,0.05492243,-0.99056244,3.16369772,0.86858451,324.3711853,29.88982201,-4.17519522,-20.09826088,0.15753369,-1.6423229,115.4278488,0.5340752,-0.01284994,0.00649304,-0.84531444,-0.07111697,-0.05952965,-0.00901932,101.6260071,-25.02638626,26.46999931,0
1,9.08,454,0.02483598,0.02328707,-1.01345849,2.14514875,2.53637648,301.1854553,30.84703827,-7.52574873,-20.37119484,0.02698633,-1.61420703,121.438057,0.48904166,-0.01240155,0.00668404,-0.87214673,-0.05310035,-0.02491019,0.01385955,101.6260071,-25.02638626,26.46999931,0
1,9.1,455,0.01887486,0.02538825,-1.00136316,0.40665796,-0.4645637,288.9874878,30.96306419,-9.31460381,-20.31054306,-0.12627546,-1.6197176,127.190773,0.444677,-0.01216968,0.0072725,-0.89557892,-0.04723629,-0.0244888,0.00176614,101.6260071,-25.02638626,26.46999931,0
1,9.12,456,0.00656288,0.06001556,-1.00398958,1.40332687,-2.01107883,263.6420898,30.46995163,-11.92690086,-19.55240059,-0.25555992,-1.64493501,132.4168549,0.40339783,-0.01223481,0.0078311,-0.91490936,-0.03495267,-0.05686965,0.00439771,101.6260071,-25.02638626,26.46999931,0
1,9.14,457,-0.00776542,0.06502698,-1.00760961,0.82500327,1.10712028,222.1172333,30.32492065,-14.51080322,-19.21882057,-0.35973647,-1.59879005,136.8010712,0.36811927,-0.01181636,0.00805435,-0.92966866,-0.02045645,-0.05960227,0.00802279,101.6260071,-25.02638626,26.46999931,0
1,9.16,458,-0.02422437,0.0553098,-1.01178801,0.30804142,-0.57040346,175.4038696,30.06386185,-17.77617264,-19.18849754,-0.44825062,-1.59708333,140.2482147,0.33999994,-0.01177664,0.00841657,-0.94031411,-0.0035003,-0.04820181,0.01219773,101.6260071,-25.02638626,26.46999931,0
1,9.18,459,-0.03127114,0.0460212,-1.00046909,1.48163033,-0.8394739,128.7112579,29.30969048,-19.39466095,-18.43035507,-0.49116138,-1.59002352,142.7516327,0.31938249,-0.01177971,0.00849245,-0.94751471,0.00341845,-0.03809271,0.0008885,101.6260071,-25.02638626,26.46999931,0
1,9.2,460,-0.03409297,0.05240917,-1.00725722,1.45058095,1.41159678,75.71809387,29.19366455,-20.70080948,-19.6433754,-0.50306892,-1.55501461,144.2049561,0.30734131,-0.01156383,0.00834738,-0.95149249,0.00676701,-0.04375499,0.00766814,101.6260071,-25.02638626,26.46999931,0
1,9.22,461,-0.03441534,0.02929641,-0.99574184,0.73674542,-0.56739044,28.49799156,29.22267151,-21.32548904,-19.55240059,-0.54058021,-1.57820666,144.7238312,0.30303359,-0.01169517,0.00866816,-0.95286876,0.00684202,-0.02019574,-0.00383639,101.6260071,-25.02638626,26.46999931,0
1,9.24,462,0.06391554,-0.20538394,-1.03885984,-7.36746645,14.32601833,111.5039063,28.9616127,-20.78599167,-19.27947426,-0.73274934,-1.33790898,147.1448059,0.28285041,-0.00939012,0.00943467,-0.9590717,-0.08760685,0.21602914,0.03919912,101.6260071,-25.02638626,26.46999931,0
1,9.26,463,0.0779895,-0.05990772,-0.98834759,5.81304884,-3.45723462,241.0975647,27.59830475,-23.51186752,-18.7032814,-0.75447237,-1.34590888,152.0546112,0.24151306,-0.00980757,0.00922459,-0.97030419,-0.10169951,0.07236408,-0.01129367,101.6260071,-25.02638626,26.46999931,0
1,9.28,464,0.03814628,0.00820547,-1.01061535,2.19046164,-3.31396723,284.1811829,27.22121811,-25.698246,-18.7032814,-0.82780761,-1.32487977,157.7422943,0.19308057,-0.00994955,0.0093191,-0.98108822,-0.06148165,0.00592644,0.01098765,101.6260071,-25.02638626,26.46999931,0
1,9.3,465,0.02567041,0.0129106,-1.00006604,-0.10724004,0.79188675,284.9088745,24.40758514,-29.58829498,-18.03612328,-0.95151985,-1.22253847,163.4497528,0.14400165,-0.00936199,0.00975199,-0.9894852,-0.04768918,0.00233728,0.00042509,101.6260071,-25.02638626,26.46999931,0
1,9.32,466,0.02353298,0.02944476,-1.01699793,1.40337837,-0.18088976,285.4967041,21.3038826,-33.64871216,-18.36970329,-1.03724575,-1.14863002,169.1450043,0.09466828,-0.00912206,0.00995857,-0.99541736,-0.04359764,-0.01215892,0.01734897,101.6260071,-25.02638626,26.46999931,0
1,9.34,467,0.00317642,0.05934101,-0.98893905,2.03275132,-0.63827759,263.1609802,18.95435143,-35.04004288,-17.58123779,-1.11745822,-1.06379497,174.3512878,0.04936075,-0.00879103,0.01019665,-0.99869031,-0.02274364,-0.04091652,-0.01069956,101.6260071,-25.02638626,26.46999931,0
1,9.36,468,-0.01979483,0.06304853,-1.00925517,2.27115631,-1.3093667,216.2749481,14.7774086,-37.56715775,-17.18699837,-1.16292298,-1.00122893,178.6107025,0.01221183,-0.00861313,0.01025303,-0.99983579,0.00181095,-0.04298055,0.00961826,101.6260071,-25.02638626,26.46999931,0
1,9.38,469,-0.03814169,0.04688092,-1.01002347,-0.17557564,0.79617715,166.6902924,13.67515945,-38.61775208,-17.55090714,-1.20304513,-0.91500938,-178.1112824,-0.01639663,-0.00815638,0.01036499,-0.99977857,0.02145632,-0.02578211,0.01038537,101.6260071,-25.02638626,26.46999931,0
1,9.4,470,0.00859954,-0.03870721,-1.00102592,2.57959461,7.75413465,158.5743713,10.02033329,-40.34981918,-17.88449478,-1.21613657,-0.71406376,-174.9003754,-0.04441903,-0.00669695,0.01032467,-0.99893719,-0.02250418,0.05916927,0.00133258,101.6260071,-25.02638626,26.46999931,0
1,9.42,471,0.00371724,0.03250942,-1.00537658,1.00069523,-3.83417249,172.1208191,6.9166317,-42.13867569,-17.85416412,-1.24121296,-0.71170807,-171.4993897,-0.07404147,-0.00699609,0.01034113,-0.997177,-0.01614566,-0.01096648,0.00568591,101.6260071,-25.02638626,26.46999931,0
1,9.44,472,-0.03088541,0.04826596,-0.99916422,1.15069866,-0.80488235,135.349823,4.7701478,-41.8547287,-17.4296093,-1.24969435,-0.66229641,-168.8416901,-0.09715112,-0.00681209,0.01029171,-0.99519318,0.01877718,-0.02654185,-0.00052646,101.6260071,-25.02638626,26.46999931,0
1,9.46,473,-0.01138838,-0.00218725,-1.00143421,1.49277246,2.34616876,110.1111832,2.18856549,-42.25225449,-17.2779808,-1.25711966,-0.56390202,-166.6441498,-0.11622661,-0.00616297,0.01032344,-0.99315,0.0006613,0.02391911,0.00172793,101.6260071,-25.02638626,26.46999931,0
1,9.48,474,-0.00042699,-0.00657446,-1.0084337,-0.32223776,3.353863,117.6882706,0.79625052,-42.53619766,-16.64113617,-1.28214431,-0.44533664,-164.2628021,-0.13684957,-0.00538118,0.01055115,-0.99052107,-0.0083809,0.02878651,0.00871939,101.6260071,-25.02638626,26.46999931,0
1,9.5,475,0.01747472,-0.02228833,-1.01207662,3.00481248,-1.33492661,141.7624664,-2.82957006,-43.53000641,-16.88374901,-1.23557222,-0.40660405,-161.3913727,-0.16163044,-0.00524463,0.01006662,-0.98678619,-0.02482979,0.04449537,0.01235042,101.6260071,-25.02638626,26.46999931,0
1,9.52,476,0.0140887,-0.01864786,-0.99438471,-0.77297163,2.33984208,166.0165253,-4.71499491,-43.58679581,-16.61081505,-1.28388202,-0.28496751,-158.0522003,-0.19032234,-0.00457394,0.01052547,-0.98165458,-0.02032872,0.04036402,-0.00535976,101.6260071,-25.02638626,26.46999931,0
1,9.54,477,0.02805587,-0.03031844,-1.00327444,2.93419433,0.77167338,190.2488251,-9.61710167,-43.78555679,-16.27723503,-1.24485326,-0.18332927,-154.2080383,-0.22315186,-0.00398387,0.01023212,-0.97472185,-0.03228131,0.05254659,0.00353068,101.6260071,-25.02638626,26.46999931,0
1,9.56,478,0.02706579,-0.00340451,-1.00638986,0.58961022,1.23298419,222.4238281,-16.40463638,-42.64977646,-16.48950768,-1.25344896,-0.06837802,-149.7398682,-0.26098958,-0.00343098,0.01040328,-0.96527946,-0.02918211,0.02512959,0.00662826,101.6260071,-25.02638626,26.46999931,0
1,9.58,479,0.00391831,0.02947084,-1.00461149,1.10008335,-3.2979033,230.4063721,-19.01522636,-41.28683853,-16.45918655,-1.24335873,-0.03064721,-145.155365,-0.2993924,-0.00350383,0.0102723,-0.9540683,-0.00485021,-0.00767953,0.00484934,101.6260071,-25.02638626,26.46999931,0
1,9.6,480,-0.01574672,0.04527322,-1.00940919,-2.11720657,-0.02051363,202.9048767,-25.68673134,-37.68073273,-16.15592957,-1.27382922,0.05307798,-141.1526489,-0.33253545,-0.00325984,0.01063738,-0.94302517,0.01602511,-0.02306585,0.00965595,101.6260071,-25.02638626,26.46999931,0
1,9.62,481,-0.00810932,0.01739625,-0.98994356,1.98699999,1.34589648,165.029007,-27.65917778,-36.77210999,-16.27723503,-1.25675154,0.1726643,-137.8613281,-0.35949129,-0.00253665,0.01077545,-0.93308282,0.0096634,0.00439447,-0.00981764,101.6260071,-25.02638626,26.46999931,0
1,9.64,482,0.00629542,-0.00313651,-1.02585661,-0.14740594,2.09010506,172.3011017,-32.30022812,-34.13142014,-16.36820984,-1.23378086,0.27712348,-134.3998718,-0.38751748,-0.00194295,0.01086236,-0.92179638,-0.00195428,0.02533482,0.02611261,101.6260071,-25.02638626,26.46999931,0
1,9.66,483,0.0118719,0.01190927,-0.98978353,1.61228585,-2.57145619,179.3872986,-34.50472641,-32.00182724,-16.42886353,-1.19121802,0.32018045,-130.8188324,-0.41613406,-0.00178519,0.01061497,-0.90923965,-0.00705069,0.00917684,-0.00998247,101.6260071,-25.02638626,26.46999931,0
1,9.68,484,-0.00319761,0.01193764,-1.00860095,-0.83671677,1.49270284,172.0554657,-38.85570526,-27.43031311,-17.0353775,-1.18439174,0.41740155,-127.3846283,-0.44319901,-0.00131555,0.01087927,-0.89635634,0.00979998,0.00871644,0.0088361,101.6260071,-25.02638626,26.46999931,0
1,9.7,485,0.01637709,-0.01901487,-1.00261724,3.68970561,1.31097436,176.522522,-41.87238693,-22.80200386,-16.73212051,-1.08901179,0.51298463,-123.8146362,-0.47091109,-0.00052601,0.01049152,-0.88211817,-0.0082501,0.0387933,0.00284617,101.6260071,-25.02638626,26.46999931,0
1,9.72,486,0.03806689,-0.02105857,-1.00344229,3.01114464,0.99065679,214.8534546,-43.61278534,-19.13911057,-17.18699837,-0.99042988,0.6288377,-119.4846268,-0.50390476,0.00038478,0.0102305,-0.8636986,-0.02825437,0.03938616,0.0036586,101.6260071,-25.02638626,26.46999931,0
1,9.74,487,0.04824765,-0.00761099,-1.00830901,4.25929594,2.53049994,245.2520142,-46.25238037,-12.01208496,-17.49025536,-0.86604756,0.74667531,-114.5401459,-0.54069465,0.00139506,0.00988048,-0.84115982,-0.03596747,0.0235443,0.0085118,101.6260071,-25.02638626,26.46999931,0
1,9.76,488,0.01940966,0.01093367,-1.00705254,-5.41794109,-2.60023022,266.4094238,-46.65847015,-7.95166731,-17.64188385,-0.88554704,0.78507233,-109.2147141,-0.57918906,0.00110913,0.01026737,-0.81512791,-0.00616173,0.00473248,0.00726306,101.6260071,-25.02638626,26.46999931,0
1,9.78,489,0.01530693,0.03038508,-1.00654495,0.92425179,2.29115701,260.595459,-46.86151505,-2.0740006,-18.40002632,-0.79003972,0.901411,-104.0072174,-0.61562109,0.00195471,0.01027533,-0.78797287,-0.00063731,-0.01585907,0.00675829,101.6260071,-25.02638626,26.46999931,0
1,9.8,490,0.03391748,0.00933729,-1.00015569,3.63307786,1.13698757,264.7761841,-45.32416916,2.89504123,-18.8549099,-0.64295828,0.99103862,-98.70192719,-0.6514262,0.00290661,0.0098905,-0.75864196,-0.01748792,0.00295408,0.0003666,101.6260071,-25.02638626,26.46999931,0
1,9.82,491,0.03247374,0.0075434,-0.99764651,2.03564787,-2.00213861,273.8345642,-42.3655014,10.93069077,-19.70402908,-0.51071495,1.02847719,-93.21629333,-0.68697894,0.00346021,0.00940416,-0.72660822,-0.01515267,0.00260908,-0.00215169,101.6260071,-25.02638626,26.46999931,0
1,9.84,492,0.00362963,0.06478261,-1.00822997,-1.35031509,-2.21129131,264.8819275,-38.53663635,15.30344868,-20.88673401,-0.43040875,1.03638709,-87.96504974,-0.71954089,0.00357796,0.00911584,-0.694381,0.01437753,-0.05630222,0.0084281,101.6260071,-25.02638626,26.46999931,0
1,9.86,493,-0.00983387,0.06654836,-1.0065788,2.25617886,-0.55331111,217.9358063,-36.30312729,18.56881905,-20.58347702,-0.2931003,1.06019104,-83.65697479,-0.74512613,0.00426418,0.00859961,-0.66685456,0.02828306,-0.06014016,0.00676956,101.6260071,-25.02638626,26.46999931,0
1,9.88,494,0.00323495,0.01561844,-1.00171459,-0.69023377,0.58837521,191.4820557,-32.0391655,21.37987709,-21.12933731,-0.23337401,1.08680379,-79.84513092,-0.76688898,0.00452456,0.0085803,-0.64170653,0.01565837,-0.01131777,0.00190233,101.6260071,-25.02638626,26.46999931,0
1,9.9,495,0.00941489,0.01993361,-1.00207222,3.05032706,0.66452956,176.8291016,-30.7048645,22.60084343,-21.64486694,-0.11000212,1.11359966,-76.32439423,-0.78623319,0.00524981,0.0082339,-0.61785281,0.00979942,-0.01703526,0.00226115,101.6260071,-25.02638626,26.46999931,0
1,9.92,496,-0.010217,0.04183439,-1.00932527,-0.81155503,0.03075195,158.2376099,-27.57216072,23.48107147,-22.58496857,-0.04774972,1.11741972,-73.18966675,-0.80283558,0.00547864,0.00807733,-0.59612066,0.03001899,-0.04026883,0.0095226,101.6260071,-25.02638626,26.46999931,0
1,9.94,497,0.00355839,-0.01227592,-0.9830606,0.96300399,0.01882027,124.7531433,-26.29586792,23.50946617,-22.6152916,0.02155122,1.14577568,-70.66082764,-0.81578898,0.00593553,0.00804842,-0.57826322,0.01574375,0.01238105,-0.01675307,101.6260071,-25.02638626,26.46999931,0
1,9.96,498,0.04228139,-0.05400253,-1.02058339,-1.73851323,-0.36158657,166.8279419,-23.51123619,24.7020359,-23.43408585,0.08492453,1.14271665,-67.25785065,-0.83259612,0.00613961,0.00789262,-0.55379027,-0.02193985,0.05354084,0.02079053,101.6260071,-25.02638626,26.46999931,0
1,9.98,499,0.03161943,0.0006214,-1.00018263,-0.02588158,0.84650379,203.6285553,-19.21826935,25.21313667,-23.91929436,0.15844017,1.14504063,-63.16741943,-0.85182536,0.00641113,0.00778798,-0.52372867,-0.01140171,-0.00326452,0.00039055,101.6260071,-25.02638626,26.46999931,0
1,10,500,0.04409464,-0.02445896,-1.00655508,3.2483139,2.40690088,225.2353668,-18.17403603,25.04277229,-24.31352615,0.31294358,1.18140256,-58.62039185,-0.87191886,0.00742807,0.00765284,-0.48953414,-0.02380034,0.02048157,0.00676925,101.6260071,-25.02638626,26.46999931,0
1,10.02,501,0.05847144,-0.02664253,-1.0187825,-0.16664083,0.02597784,256.4223633,-13.44596577,24.50327682,-25.49623108,0.42296496,1.13937998,-53.44287491,-0.89313662,0.00776748,0.00722127,-0.44966063,-0.0376643,0.02018142,0.01902007,101.6260071,-25.02638626,26.46999931,0
1,10.04,502,0.04462648,0.00310918,-0.99954307,-0.78072697,1.6872803,290.0256653,-11.53153324,24.21932983,-24.67743683,0.51263499,1.1147033,-47.61917496,-0.91482222,0.00801956,0.00709361,-0.40371495,-0.02502321,-0.01149856,-0.00022952,101.6260071,-25.02638626,26.46999931,0
1,10.06,503,0.03869724,0.02830467,-0.99663961,4.11827326,-1.83295095,298.1800842,-8.1667757,23.45267677,-25.4355793,0.6950143,1.03054345,-41.64753723,-0.93460405,0.00886562,0.00624944,-0.35552472,-0.02033238,-0.03871196,-0.00313698,101.6260071,-25.02638626,26.46999931,0
1,10.08,504,0.07021166,-0.04496226,-1.02620471,1.0094862,-0.11849858,317.1097717,-5.17910147,22.60084343,-25.6781826,0.84571546,0.93790025,-35.24147797,-0.95300502,0.00951122,0.00556639,-0.30275396,-0.05242139,0.0321212,0.02644595,101.6260071,-25.02638626,26.46999931,0
1,10.1,505,0.10650576,-0.06424984,-0.99946964,-1.58378363,3.51270247,373.8813171,-3.69976425,21.86258316,-25.98143959,0.93891305,0.8814888,-27.68353271,-0.97088379,0.00979556,0.00550857,-0.23928733,-0.0905133,0.04846919,-0.00027788,101.6260071,-25.02638626,26.46999931,0
1,10.12,506,0.12523487,-0.06696004,-1.00533879,5.0619216,0.3642261,438.2974854,-0.85712314,20.32928085,-26.13306808,1.15899813,0.72410583,-18.84785461,-0.98642331,0.01101189,0.00457736,-0.1637893,-0.11110269,0.04863199,0.00560744,101.6260071,-25.02638626,26.46999931,0
1,10.14,507,0.13091278,-0.04492952,-1.01504529,0.46691319,1.96575665,485.4276428,0.65121752,19.90336227,-26.64860725,1.28124106,0.54883158,-9.10399055,-0.99676782,0.01152539,0.0038867,-0.07941124,-0.11971291,0.02380569,0.01533141,101.6260071,-25.02638626,26.46999931,0
1,10.16,508,0.12915367,-0.01850588,-0.99064612,3.48839474,0.42762354,500.3424988,2.88472319,19.10831642,-25.28395081,1.42081761,0.33376774,0.8841961,-0.99988937,0.01237576,0.00300802,0.00767925,-0.12171604,-0.00520787,-0.00904431,101.6260071,-25.02638626,26.46999931,0
1,10.18,509,0.10299425,0.01129907,-1.00572026,-0.58461821,-0.6070863,475.3809815,4.88617373,17.48982811,-25.40524864,1.45548975,0.0921417,10.3209362,-0.99586701,0.0125774,0.00194318,0.08992796,-0.09933768,-0.03634621,0.00604139,101.6260071,-25.02638626,26.46999931,0
1,10.2,510,0.0479478,-0.00522983,-1.01829135,18.17794609,-3.65795374,381.6939087,6.59756184,16.97872734,-24.64710617,1.8098129,-0.17000555,17.83500671,-0.98778474,0.01583197,0.00098263,0.1550158,-0.04887823,-0.02316712,0.01869779,101.6260071,-25.02638626,26.46999931,0
1,10.22,511,0.03091421,0.00750488,-0.95952028,-3.12459636,2.23874974,309.2774353,7.78682947,17.46143341,-24.13157654,1.68070745,-0.2954258,23.97215843,-0.97808176,0.01488195,0.00052423,0.20768791,-0.03542446,-0.03932938,-0.0399625,101.6260071,-25.02638626,26.46999931,0
1,10.24,512,0.03751425,0.0596844,-1.02421391,1.95461965,0.26538852,281.107666,8.36696148,16.07009888,-23.37343407,1.68480587,-0.44568706,29.56967926,-0.96676463,0.0152077,-0.00000835,0.25521564,-0.04378548,-0.08874859,0.02465657,101.6260071,-25.02638626,26.46999931,0
1,10.26,513,0.05206287,0.09815041,-1.0084852,-3.46509838,2.67356873,264.9191284,9.17914486,16.29725838,-22.58496857,1.60127473,-0.54041994,34.84589767,-0.95399708,0.01474401,-0.00031535,0.29945323,-0.06066535,-0.12632903,0.00891957,101.6260071,-25.02638626,26.46999931,0
1,10.28,514,0.0637761,0.1112322,-0.98974764,1.90032339,-1.49544621,248.1836243,9.96232033,14.59358406,-21.91780281,1.58353865,-0.69712842,39.78952789,-0.94018352,0.01506359,-0.00101767,0.34033376,-0.07467378,-0.13943274,-0.00979488,101.6260071,-25.02638626,26.46999931,0
1,10.3,515,0.06710611,0.09869236,-1.02448618,0.35539094,3.07016397,232.6930695,11.32562828,15.95652199,-21.73585129,1.53634942,-0.77888346,44.42264175,-0.92565703,0.01498084,-0.0012241,0.37806529,-0.07965512,-0.12580977,0.02493283,101.6260071,-25.02638626,26.46999931,0
1,10.32,516,0.0539889,0.01211099,-0.99981964,7.41499901,-1.59141827,221.3431549,12.0797987,16.01331329,-21.28096581,1.60672247,-0.93702501,48.84122849,-0.91036773,0.01614633,-0.00164824,0.41348186,-0.06896865,-0.03958333,0.00030965,101.6260071,-25.02638626,26.46999931,0
1,10.34,517,0.03573865,-0.04693713,-1.02817059,-3.90958929,4.58965826,221.2848358,13.29807472,15.55899906,-20.79574966,1.50334322,-0.98651516,53.27941132,-0.8936832,0.01558539,-0.00181236,0.44842428,-0.05231984,0.02057045,0.02865616,101.6260071,-25.02638626,26.46999931,0
1,10.36,518,0.04059748,-0.11256665,-0.96290374,5.66891909,-1.72750819,236.2224731,14.89343357,14.65037441,-20.34086418,1.48784471,-1.12344372,58.02590561,-0.87433273,0.01610816,-0.00227594,0.48505428,-0.05977068,0.08543322,-0.03654391,101.6260071,-25.02638626,26.46999931,0
1,10.38,519,0.04063906,-0.05107666,-1.02250469,-6.19214058,1.74790823,251.6016998,15.76363182,14.82074261,-19.91630936,1.29116344,-1.19558215,63.06457138,-0.8521837,0.01505911,-0.00299992,0.52301729,-0.06076419,0.02748907,0.02298605,101.6260071,-25.02638626,26.46999931,0
1,10.4,520,0.05604067,0.06638992,-1.00600553,1.23245418,-0.15227611,256.5824585,17.67806435,14.48000622,-19.40077209,1.20537603,-1.31074941,68.20140839,-0.82788622,0.01512193,-0.00357401,0.56068099,-0.07784521,-0.0881928,0.00648128,101.6260071,-25.02638626,26.46999931,0
1,10.42,521,0.07280015,0.08920459,-1.00967932,0.99485826,2.67047572,258.5300903,18.31620598,13.79853916,-19.12784576,1.10646129,-1.38073266,73.36754608,-0.80177993,0.01494029,-0.0038943,0.59741998,-0.09598928,-0.10953208,0.01015503,101.6260071,-25.02638626,26.46999931,0
1,10.44,522,0.07030914,0.00406333,-1.0000807,1.99271691,-2.17132211,259.6112671,19.56348801,12.74794102,-19.37044907,1.01766431,-1.50535142,78.58853149,-0.7737326,0.01519112,-0.00454214,0.63331395,-0.09540949,-0.02283188,0.00057227,101.6260071,-25.02638626,26.46999931,0
1,10.46,523,0.0570679,-0.03336193,-1.0013262,-2.25162196,4.55181837,282.9814148,20.8397789,11.66894913,-19.27947426,0.81896186,-1.51348841,84.27940369,-0.74136436,0.01416,-0.00499849,0.6709348,-0.08338947,0.01705365,0.00180627,101.6260071,-25.02638626,26.46999931,0
1,10.48,524,0.05958799,-0.02837253,-1.01069558,-0.29197407,-0.94354242,307.9501648,22.98626137,10.64674759,-18.91556358,0.66239923,-1.60374248,90.4622345,-0.7041108,0.01400601,-0.00575221,0.70992875,-0.0869694,0.01595524,0.01114807,101.6260071,-25.02638626,26.46999931,0
1,10.5,525,0.06875831,-0.01468948,-0.98637879,2.14065385,0.04740804,321.2351685,24.00149345,7.80729437,-19.46142387,0.50098926,-1.65328658,96.90423584,-0.66312337,0.01369656,-0.00629703,0.74835837,-0.09757699,0.00399554,-0.01314837,101.6260071,-25.02638626,26.46999931,0
1,10.52,526,0.058894,0.01380949,-1.01635814,-4.15868664,0.75984758,322.3894653,24.75566101,5.67770529,-19.4917469,0.2422943,-1.67780828,103.3204346,-0.62023187,0.01279515,-0.00742396,0.78427911,-0.08784255,-0.01994951,0.01679669,101.6260071,-25.02638626,26.46999931,0
1,10.54,527,0.04014727,0.02258603,-1.00698626,-0.27301562,0.97794634,297.4902954,26.93115425,4.96784115,-19.55240059,0.05633342,-1.67158604,109.2521668,-0.57884282,0.01217852,-0.00804365,0.81530851,-0.06951875,-0.02523512,0.00742149,101.6260071,-25.02638626,26.46999931,0
1,10.56,528,0.0356256,0.0285028,-1.00836539,-1.43009055,0.26459673,286.62854,27.33724594,3.26417089,-19.18849754,-0.12765387,-1.66405976,114.978241,-0.5374167,0.01164686,-0.00874385,0.84319109,-0.06466029,-0.02762967,0.00878766,101.6260071,-25.02638626,26.46999931,0
1,10.58,529,0.04275049,0.00765341,-1.00769949,-0.35523394,0.26088071,281.8742676,28.55552101,0.93581867,-19.4917469,-0.29783621,-1.63626122,120.6077652,-0.49538016,0.0111158,-0.00933111,0.86855507,-0.07158677,-0.00404438,0.00812218,101.6260071,-25.02638626,26.46999931,0
1,10.6,530,0.03062561,0.02430567,-1.00632751,-1.42248678,0.21598044,263.6662598,28.9616127,-1.47771585,-20.12859154,-0.46536133,-1.60494566,125.8424835,-0.45521742,0.01062152,-0.0099909,0.89026088,-0.05901729,-0.01735641,0.00675515,101.6260071,-25.02638626,26.46999931,0
1,10.62,531,0.02236328,0.02263068,-0.99236095,2.31026602,-1.31949008,233.047699,28.67154694,-2.78386402,-20.12859154,-0.57427442,-1.5844723,130.4663544,-0.41894433,0.01045551,-0.01034237,0.90789288,-0.05054596,-0.01377943,-0.0072026,101.6260071,-25.02638626,26.46999931,0
1,10.64,532,-0.01393685,-0.03917781,-1.01402116,-1.15122366,-0.53403056,212.1960602,29.86081505,-5.25418711,-20.09826088,-0.69723737,-1.54571831,134.703064,-0.38511002,0.01010533,-0.0108088,0.92275202,-0.01330604,0.05077339,0.01445972,101.6260071,-25.02638626,26.46999931,0
1,10.66,533,0.0306054,0.02600353,-1.00616598,7.30390406,-1.09497428,210.3238678,29.88982201,-6.87267542,-20.24988937,-0.6752277,-1.51999664,138.9121552,-0.35096195,0.01035269,-0.01017184,0.93627727,-0.05730269,-0.01384885,0.00659634,101.6260071,-25.02638626,26.46999931,0
1,10.68,534,0.05464258,0.03867231,-0.98825967,1.70243812,-1.08908057,219.7927704,29.39671135,-9.25781536,-20.15891457,-0.76408696,-1.47550225,143.3343811,-0.31458491,0.01012493,-0.01037874,0.94911855,-0.08097745,-0.0262826,-0.01131665,101.6260071,-25.02638626,26.46999931,0
1,10.7,535,0.04842079,0.00361267,-1.00786781,-0.98143435,-1.28918266,241.6716614,29.16465759,-10.56396389,-20.70477486,-0.88794219,-1.42790031,148.1976929,-0.27404237,0.00986049,-0.0108654,0.96160567,-0.07349094,0.0109976,0.00828904,101.6260071,-25.02638626,26.46999931,0
1,10.72,536,0.05537935,-0.00148167,-1.00067413,1.93253231,-0.68952227,263.0509949,28.58452606,-12.86391926,-22.13008308,-0.98609579,-1.35935187,153.4742737,-0.22949402,0.00957142,-0.01109643,0.97319984,-0.07954086,0.01744566,0.00109375,101.6260071,-25.02638626,26.46999931,0
1,10.74,537,0.03427313,-0.04497654,-0.99774224,-0.01338818,0.70392162,280.2738648,27.8303566,-16.86754799,-21.46291733,-1.10587847,-1.22712564,159.1077271,-0.1813944,0.00878087,-0.01143144,0.9833048,-0.05682099,0.06306089,-0.00183969,101.6260071,-25.02638626,26.46999931,0
1,10.76,538,0.01739401,-0.08232395,-1.00697613,1.5394876,0.41758117,300.4819031,27.07618523,-19.30947685,-21.189991,-1.19168615,-1.10437548,165.1304474,-0.1294843,0.00821022,-0.01155831,0.99148011,-0.0374573,0.10240215,0.00737931,101.6260071,-25.02638626,26.46999931,0
1,10.78,539,0.04518407,-0.01652466,-1.00120986,1.94597006,-1.39785087,306.1820374,23.94347763,-22.97237206,-20.37119484,-1.27622521,-0.99638736,171.2389526,-0.07646954,0.00781846,-0.01176807,0.99697191,-0.06345177,0.03770544,0.00160129,101.6260071,-25.02638626,26.46999931,0
1,10.8,540,0.04816464,0.03919919,-1.01211166,-0.99453366,-0.62483382,291.5976257,22.20308685,-23.96617889,-20.12859154,-1.37240207,-0.87795663,177.057312,-0.02576671,0.00735095,-0.01216859,0.99956697,-0.06432481,-0.01568571,0.01251899,101.6260071,-25.02638626,26.46999931,0
1,10.82,541,0.06860814,0.04625979,-0.99726921,10.35508919,-1.67016971,288.6999817,19.91156769,-25.6698513,-20.49249268,-1.27779198,-0.78655869,-177.1656494,0.02465383,0.00713721,-0.01097718,0.99961036,-0.08311007,-0.02347429,-0.00236575,101.6260071,-25.02638626,26.46999931,0
1,10.84,542,0.08518929,0.04826565,-0.98691654,-1.31241894,0.97250742,296.2261047,18.20018196,-27.5722847,-20.55314636,-1.38954139,-0.61650521,-171.2359619,0.07633483,0.00629035,-0.01167908,0.99699396,-0.09778881,-0.02514465,-0.01273632,101.6260071,-25.02638626,26.46999931,0
1,10.86,543,0.06055414,0.099632,-1.0276612,-2.16009235,1.42781758,292.5713806,15.32853317,-29.02040482,-19.70402908,-1.46378303,-0.45200425,-165.4230499,0.12680432,0.00553279,-0.01216988,0.99183768,-0.06963783,-0.07399781,0.0280315,101.6260071,-25.02638626,26.46999931,0
1,10.88,544,0.03764951,0.07352171,-0.99607778,7.79500008,-4.66271877,260.9497986,11.12258244,-30.35494804,-19.6433754,-1.36863768,-0.41761661,-160.2617493,0.17134239,0.00563725,-0.01114191,0.98513246,-0.04518468,-0.04937674,-0.00360221,101.6260071,-25.02638626,26.46999931,0
1,10.9,545,-0.01518989,0.06430762,-1.00505793,-0.80118728,0.23759781,209.4904022,9.70126152,-32.20059204,-19.00653839,-1.40843999,-0.31735572,-156.1272888,0.2067758,0.00525137,-0.0114521,0.97830731,0.00895245,-0.04017365,0.00536877,101.6260071,-25.02638626,26.46999931,0
1,10.92,546,-0.02178862,0.06751986,-1.00511086,1.22633791,-0.18812235,166.2877655,7.17769003,-31.91664505,-19.09751511,-1.40347052,-0.23892429,-152.8656311,0.234543,0.00489971,-0.01141642,0.97202641,0.01707955,-0.04288751,0.00542543,101.6260071,-25.02638626,26.46999931,0
1,10.94,547,-0.02974704,0.05948567,-1.00385928,-0.23752238,0.09063771,122.7116623,6.36550713,-32.17219543,-19.15816689,-1.41610801,-0.17625426,-150.4694672,0.25482196,0.00463665,-0.0115575,0.96690786,0.02633548,-0.03508577,0.00416293,101.6260071,-25.02638626,26.46999931,0
1,10.96,548,-0.03708406,0.03902406,-1.00203276,-0.08265566,1.657493,76.1876297,4.68312979,-32.05861664,-19.43110275,-1.39135659,-0.08620187,-149.0086823,0.26713723,0.00396867,-0.01149927,0.9635818,0.03480439,-0.01436014,0.00233953,101.6260071,-25.02638626,26.46999931,0
1,10.98,549,0.03691177,-0.10686787,-1.00942028,16.71164322,3.42930651,86.04085541,4.36405659,-31.34875488,-18.91556358,-1.07985127,0.01565608,-147.1860199,0.28244758,0.00253065,-0.0090782,0.95923644,-0.03695159,0.12786125,0.00964164,101.6260071,-25.02638626,26.46999931,0
1,11,550,0.0636279,-0.16217768,-0.99970543,3.53465724,4.08502674,182.164505,1.72445929,-31.91664505,-17.82384109,-1.00264812,0.1692279,-143.4088287,0.3139196,0.0013446,-0.00877091,0.94940811,-0.06210294,0.18028854,-0.00012916,101.6260071,-25.02638626,26.46999931,0
1,11.02,551,0.08026451,-0.12189319,-1.01489747,7.02654123,2.83848166,286.4571228,-3.26466537,-32.31417084,-18.33937263,-0.83864135,0.30647501,-137.5724182,0.36185658,0.00015497,-0.00779025,0.93220121,-0.0758784,0.13804896,0.01503828,101.6260071,-25.02638626,26.46999931,0
1,11.04,552,0.12180401,-0.04276679,-1.00034869,8.08480167,4.55218744,371.4606628,-6.25234318,-30.61049843,-18.12709808,-0.62317139,0.50834811,-130.0613098,0.4221451,-0.00172586,-0.00680246,0.90650123,-0.11503349,0.05553534,0.00045407,101.6260071,-25.02638626,26.46999931,0
1,11.06,553,0.12661813,0.02804045,-1.01558077,6.34357309,5.94708157,424.1515503,-13.47497368,-28.22535896,-17.00504684,-0.39346892,0.71715117,-121.561821,0.48815706,-0.00378583,-0.00605166,0.87272662,-0.1157458,-0.01880238,0.01568326,101.6260071,-25.02638626,26.46999931,0
1,11.08,554,0.10479576,0.07610676,-0.9856301,-2.44471788,5.01008606,430.1827087,-17.30383682,-25.32911491,-17.49025536,-0.35302436,0.87082195,-112.9696045,0.55215937,-0.00463479,-0.00676442,0.83369827,-0.09059773,-0.07046799,-0.014253,101.6260071,-25.02638626,26.46999931,0
1,11.1,555,0.04915657,0.07945843,-1.01264226,-17.46909523,4.53855801,417.5683289,-23.0471344,-19.39466095,-17.67221451,-0.56061643,1.0200541,-104.6434708,0.61123002,-0.0040549,-0.00931266,0.79138786,-0.03254219,-0.07145941,0.01281297,101.6260071,-25.02638626,26.46999931,0
1,11.12,556,0.03961156,0.01404088,-1.03117561,5.93580437,4.64850807,396.3394775,-25.13561058,-15.64658356,-18.61230659,-0.23925807,1.18069732,-96.7435379,0.66427422,-0.00631451,-0.00840502,0.74741513,-0.02059919,-0.00555232,0.03139392,101.6260071,-25.02638626,26.46999931,0
1,11.14,557,0.07129423,-0.01372507,-0.92829758,-4.91827536,0.19868994,378.2773438,-26.81798363,-8.32079601,-18.40002632,-0.26679081,1.21372616,-89.18735504,0.71207917,-0.00577822,-0.00917673,0.70201546,-0.05097253,0.01586519,-0.07149339,101.6260071,-25.02638626,26.46999931,0
1,11.16,558,0.01841951,0.07651055,-1.04720581,-11.6588707,3.5321033,374.9290161,-26.87599945,-1.90363348,-19.37044907,-0.28250873,1.3320204,-81.68621826,0.75646871,-0.00573691,-0.01040563,0.65392196,0.00375842,-0.06965687,0.04747584,101.6260071,-25.02638626,26.46999931,0
1,11.18,559,0.06973196,0.08677673,-0.98400939,1.26217759,-0.51528955,372.0588379,-26.12182999,0.82224113,-18.55165291,-0.09607046,1.35235488,-74.25714111,0.79723334,-0.00645492,-0.00991494,0.60355526,-0.04657287,-0.08389331,-0.01571801,101.6260071,-25.02638626,26.46999931,0
1,11.2,560,0.01693282,0.11594482,-1.01774669,-0.63545704,2.41364622,341.0327759,-24.17839432,6.58632946,-19.00653839,0.06097514,1.39128542,-67.49184418,0.83144432,-0.00718685,-0.00979974,0.55547535,0.00707725,-0.11523615,0.01803563,101.6260071,-25.02638626,26.46999931,0
1,11.22,561,0.01611878,0.08416261,-1.00068152,2.05372548,-0.32103962,297.4267883,-23.56925201,8.54555225,-19.73435974,0.23521523,1.36811531,-61.59621811,0.85890132,-0.00787585,-0.0092042,0.51199788,0.00785745,-0.08685083,0.00097296,101.6260071,-25.02638626,26.46999931,0
1,11.24,562,0.00051089,0.06966548,-0.99931127,1.16433334,-0.81005895,255.2048798,-20.61058426,11.24303246,-19.67370605,0.3772088,1.32826614,-56.54435349,0.88062555,-0.00838907,-0.00864919,0.47365969,0.02281605,-0.07494868,-0.0004025,101.6260071,-25.02638626,26.46999931,0
1,11.26,563,-0.00542305,0.07072908,-1.00106859,2.21935225,0.55116326,210.1653595,-19.53734398,12.86152077,-20.00728607,0.51585507,1.320467,-52.40890121,0.89713258,-0.00912695,-0.00835091,0.44158816,0.02845532,-0.07862331,0.00136522,101.6260071,-25.02638626,26.46999931,0
1,11.28,564,-0.01597284,0.06219627,-1.01523817,1.04534721,0.19761829,159.5569611,-18.55112076,13.11707115,-20.40151787,0.61514473,1.28687513,-49.27721405,0.90885991,-0.00956066,-0.00796951,0.41691574,0.03899964,-0.07203466,0.01555187,101.6260071,-25.02638626,26.46999931,0
1,11.3,565,0.0677357,-0.20722529,-0.98107547,-7.19941473,5.98543501,184.9935761,-17.07178688,15.30344868,-19.15816689,0.54654723,1.36056948,-45.4200058,0.92237341,-0.00898311,-0.00911108,0.38608763,-0.04465207,0.19634137,-0.01859857,101.6260071,-25.02638626,26.46999931,0
1,11.32,566,0.09016753,-0.09391322,-1.02127314,3.57423067,-1.57258213,303.7416077,-15.79549694,15.64418507,-19.61305237,0.78634113,1.26406312,-39.22957993,0.94186604,-0.01016637,-0.00808703,0.33573765,-0.06681962,0.08302124,0.02160591,101.6260071,-25.02638626,26.46999931,0
1,11.34,567,0.09675439,-0.02582769,-0.98883414,2.44162393,1.23370481,376.1572876,-12.72080517,17.5750103,-20.40151787,0.99643207,1.17505717,-31.643116,0.96200424,-0.01116114,-0.00749467,0.27270335,-0.07570871,0.01011224,-0.01082043,101.6260071,-25.02638626,26.46999931,0
1,11.36,568,0.10598458,0.01925347,-1.00351822,0.39716944,-0.46036282,413.9786072,-11.1254425,17.40464592,-20.12859154,1.17312241,1.01260817,-23.34797096,0.97920698,-0.01181301,-0.00658197,0.20241272,-0.08672221,-0.03818562,0.00388351,101.6260071,-25.02638626,26.46999931,0
1,11.38,569,0.1066592,0.01188088,-1.01063669,5.35591555,-0.98430854,425.6210327,-7.67366171,18.42684746,-19.76468086,1.40002036,0.78150314,-14.84004784,0.99151832,-0.01299525,-0.00518452,0.1292121,-0.09039379,-0.03477428,0.01103223,101.6260071,-25.02638626,26.46999931,0
1,11.4,570,0.08338026,0.04058046,-1.00316298,2.28057194,2.3639698,417.82901,-4.33791065,18.90955162,-19.6433754,1.53834188,0.60398012,-6.4975605,0.99828511,-0.01370107,-0.00450099,0.05673626,-0.0713807,-0.06607852,0.00356064,101.6260071,-25.02638626,26.46999931,0
1,11.42,571,0.07356887,0.01749493,-1.00353956,-0.43012336,0.4632985,403.5543823,-2.65552974,20.58483124,-19.46142387,1.60314107,0.38657796,1.55084872,0.99980551,-0.01394257,-0.00356221,-0.0134847,-0.06500663,-0.0447913,0.00394918,101.6260071,-25.02638626,26.46999931,0
1,11.44,572,0.07126381,-0.03129994,-0.99116766,0.93768811,1.28001904,398.3974609,-0.16096564,20.32928085,-19.06719208,1.63724446,0.18867102,9.53680134,0.99643779,-0.01410084,-0.00282826,-0.08309618,-0.06640823,0.00231038,-0.00839992,101.6260071,-25.02638626,26.46999931,0
1,11.46,573,0.04618545,-0.03557526,-1.0116756,-6.67648077,1.0567503,412.5242615,1.52141535,21.2095089,-19.40077209,1.54162455,-0.01574627,17.78496361,0.98789048,-0.01331234,-0.0019438,-0.15456852,-0.044554,0.00820127,0.01205237,101.6260071,-25.02638626,26.46999931,0
1,11.48,574,0.06492872,0.01619734,-0.99772882,-3.69199038,0.84244949,410.3995361,4.65412235,20.15891266,-18.8549099,1.45697415,-0.21609648,25.96835327,0.97434634,-0.01281273,-0.0010192,-0.2246867,-0.06691333,-0.04273207,-0.0019165,101.6260071,-25.02638626,26.46999931,0
1,11.5,575,0.08474576,0.02201671,-1.00378442,6.75220156,-1.35052133,399.6897888,5.7563715,20.89716911,-19.12784576,1.5370177,-0.45168701,33.95819092,0.95630252,-0.01397883,-0.00014721,-0.29204473,-0.09062935,-0.04812612,0.0041433,101.6260071,-25.02638626,26.46999931,0
1,11.52,576,0.12040684,0.11643178,-0.99804455,12.56455708,-5.49331808,390.2751465,8.6860323,19.64781189,-18.61230659,1.66193283,-0.76688629,41.73547363,0.93425149,-0.01593461,0.00108678,-0.35625702,-0.13112684,-0.14492093,-0.00149055,101.6260071,-25.02638626,26.46999931,0
1,11.54,577,0.08917541,0.14535305,-1.0367775,-5.8522501,3.64840007,371.7678223,11.20960236,20.41446304,-18.7032814,1.48468494,-0.92866355,49.13155365,0.90933484,-0.01515172,0.00198377,-0.41578451,-0.10322531,-0.17190637,0.03722969,101.6260071,-25.02638626,26.46999931,0
1,11.56,578,0.0786764,0.06996223,-0.97678947,14.98692703,-4.46957493,334.7316589,13.09502888,18.59721565,-18.73361206,1.61246502,-1.18206203,55.7627449,0.88371545,-0.01726027,0.00253711,-0.46769947,-0.0976819,-0.0980305,-0.02263485,101.6260071,-25.02638626,26.46999931,0
1,11.58,579,0.0192642,0.02848803,-1.01467311,-0.09939947,1.36896384,290.605896,15.03846645,18.42684746,-18.88524055,1.50861526,-1.30868554,61.53274536,0.85905296,-0.01715258,0.00307821,-0.51159,-0.04117681,-0.05486717,0.01526165,101.6260071,-25.02638626,26.46999931,0
1,11.6,580,0.02976387,-0.01047504,-0.98949307,2.64543009,-0.88789278,262.4665527,16.72084808,18.14290047,-18.58198357,1.41821194,-1.44868433,66.76970673,0.83477676,-0.01728873,0.0037456,-0.55030441,-0.05418814,-0.01548843,-0.00987106,101.6260071,-25.02638626,26.46999931,0
1,11.62,581,0.02893324,0.04293491,-1.01996446,-4.78569603,1.77857816,255.7168427,18.49024773,17.06390953,-18.97621727,1.21428895,-1.53229547,71.87345886,0.80946475,-0.01642595,0.00460734,-0.58692068,-0.05465223,-0.0655242,0.02055125,101.6260071,-25.02638626,26.46999931,0
1,11.64,582,0.01158124,0.07786766,-1.0086478,0.32289442,0.58154702,235.6322937,19.30243111,16.04170799,-19.06719208,1.09434366,-1.62094164,76.53560638,0.78492671,-0.01625711,0.00519105,-0.61935365,-0.03878881,-0.09822644,0.00922568,101.6260071,-25.02638626,26.46999931,0
1,11.66,583,-0.00222581,0.06767289,-1.0063467,4.01362705,0.3994258,193.8544769,21.12984276,14.53679752,-18.82458878,1.05682468,-1.7012502,80.35393524,0.76385057,-0.01662293,0.00539325,-0.64515644,-0.02650376,-0.08653661,0.00693752,101.6260071,-25.02638626,26.46999931,0
1,11.68,584,-0.01980006,0.04242881,-1.00121963,0.49975961,-0.29770291,149.8464661,22.4351368,14.08248329,-19.09751511,0.97474176,-1.75582099,83.29478455,0.74704748,-0.01653711,0.00579677,-0.66453969,-0.0104582,-0.06016057,0.00183493,101.6260071,-25.02638626,26.46999931,0
1,11.7,585,0.02061601,-0.10407971,-1.00466597,5.862638,8.0232687,127.4505463,23.1022892,13.51459408,-19.52207756,1.01544988,-1.63427317,85.91569519,0.73166615,-0.01620265,0.00439871,-0.68145639,-0.05059523,0.08705515,0.00526067,101.6260071,-25.02638626,26.46999931,0
1,11.72,586,0.06275363,-0.08052719,-1.00017846,-6.76469994,0.32774308,217.5308991,24.32056427,11.49858284,-19.27947426,0.75784677,-1.70960677,90.34130096,0.70483398,-0.01524208,0.00582756,-0.70918465,-0.09218053,0.06499071,0.00073284,101.6260071,-25.02638626,26.46999931,0
1,11.74,587,0.034127,0.03606531,-1.00652242,3.57808971,-1.28177786,256.0903015,24.87168884,10.93069077,-19.15816689,0.68031704,-1.78776872,95.44346619,0.67256987,-0.01553588,0.00610277,-0.73984534,-0.06486961,-0.0482789,0.00706982,101.6260071,-25.02638626,26.46999931,0
1,11.76,588,-0.00176639,0.06989291,-1.0039587,-1.83469129,-2.25665045,228.1667786,26.4960556,8.43197441,-19.55240059,0.50086647,-1.88815975,99.94844818,0.64298385,-0.01542755,0.00724994,-0.76569003,-0.03030495,-0.08025543,0.00452736,101.6260071,-25.02638626,26.46999931,0
1,11.78,589,-0.01298335,0.05188216,-1.0022794,4.4059329,-0.38047123,183.1359711,27.19221306,7.52334881,-19.73435974,0.45820835,-1.91468585,103.5475082,0.61862487,-0.01559913,0.00719754,-0.7854988,-0.02039589,-0.06028919,0.00287204,101.6260071,-25.02638626,26.46999931,0
1,11.8,590,0.01012814,-0.04914324,-1.01691985,-2.63005733,6.59170628,163.780426,27.56929779,6.58632946,-19.61305237,0.2960813,-1.83523893,106.8618317,0.5956803,-0.01440126,0.00746657,-0.80305791,-0.04231163,0.0424026,0.01746106,101.6260071,-25.02638626,26.46999931,0
1,11.82,591,0.02912575,-0.02929471,-0.99716181,3.66922379,-1.21779239,191.0586853,27.91737556,4.68389559,-20.03761673,0.23736946,-1.87777996,110.7123566,0.56836796,-0.01465814,0.00761103,-0.82260871,-0.06178926,0.02463624,-0.00229373,101.6260071,-25.02638626,26.46999931,0
1,11.84,592,0.02997322,-0.024103,-1.0085572,0.78036833,0.39001703,219.7849121,29.13565063,3.86045575,-19.79500389,0.10927992,-1.8883388,115.1322098,0.53624022,-0.01441909,0.00803287,-0.84390414,-0.06279944,0.02118949,0.00910049,101.6260071,-25.02638626,26.46999931,0
1,11.86,593,0.02401643,0.00045759,-1.00370491,0.85884708,-0.91327119,236.3092194,29.19366455,1.21976435,-19.4917469,-0.02838062,-1.92156684,119.8754501,0.50087446,-0.01438837,0.00861412,-0.86535752,-0.05719541,-0.00111145,0.00425587,101.6260071,-25.02638626,26.46999931,0
1,11.88,594,0.0319534,-0.00343245,-0.99146235,0.43624136,0.23413244,252.9833221,28.93260574,-0.45551255,-19.88598824,-0.19474965,-1.89784145,124.955925,0.46205109,-0.01390163,0.00915965,-0.88669711,-0.06556617,0.00514783,-0.00797085,101.6260071,-25.02638626,26.46999931,0
1,11.9,595,0.01308338,0.02484932,-1.01960158,1.40744495,0.65633392,258.8874512,29.68677521,-3.26657033,-20.21956635,-0.32035026,-1.87022507,130.1203461,0.42165005,-0.01361953,0.00941615,-0.90660745,-0.04584531,-0.01992548,0.02015075,101.6260071,-25.02638626,26.46999931,0
1,11.92,596,0.00481116,0.04973184,-0.98783755,4.5113802,-1.43600678,231.9301605,29.65777016,-5.53813314,-20.09826088,-0.40696132,-1.85958302,134.6969605,0.38512573,-0.01360786,0.0095265,-0.92271465,-0.03792608,-0.04367951,-0.01159562,101.6260071,-25.02638626,26.46999931,0
1,11.94,597,-0.02156416,0.02250491,-1.01072097,0.9024142,1.46838522,181.0705872,29.04863167,-7.41217136,-20.18924332,-0.49670935,-1.79577458,138.2827606,0.35608009,-0.01310009,0.00962964,-0.93431407,-0.01038954,-0.01404083,0.01126757,101.6260071,-25.02638626,26.46999931,0
1,11.96,598,0.00184585,-0.01839057,-1.00648618,-4.22012949,4.76645994,170.4802551,29.16465759,-7.92327309,-20.06793785,-0.6872046,-1.68538642,141.7133942,0.32797435,-0.01192731,0.01048761,-0.94455314,-0.03206139,0.02857877,0.00699525,101.6260071,-25.02638626,26.46999931,0
1,11.98,599,0.0212995,-0.02180838,-1.01101816,4.43310165,-2.41085505,196.009079,28.93260574,-9.03065872,-20.46217155,-0.70929503,-1.68756115,145.6528015,0.29531768,-0.01224193,0.01026121,-0.95526558,-0.0506499,0.03424703,0.01152627,101.6260071,-25.02638626,26.46999931,0
1,12,600,0.01250565,-0.00891238,-0.99569428,-0.6567598,-1.38225555,205.5375214,27.91737556,-11.2454319,-21.22031212,-0.84138685,-1.6453824,149.7743835,0.26078871,-0.01194709,0.01083112,-0.96526122,-0.04191128,0.02219806,-0.00378482,101.6260071,-25.02638626,26.46999931,0
1,12.02,601,0.01368985,-0.01824188,-1.01442266,0.96271968,-0.05468047,210.1455841,27.54029083,-12.60836887,-21.25063515,-0.94080752,-1.5897882,153.990036,0.22511794,-0.01166941,0.01112049,-0.97419822,-0.04159861,0.03382676,0.01493373,101.6260071,-25.02638626,26.46999931,0
1,12.04,602,0.01956166,-0.00779514,-1.00350094,-0.56636459,0.00185219,218.1208649,27.07618523,-14.51080322,-21.85714912,-1.07015073,-1.51667917,158.3446655,0.18795288,-0.01124476,0.01165782,-0.98204452,-0.04663169,0.02535644,0.0040219,101.6260071,-25.02638626,26.46999931,0
1,12.06,603,0.00206863,0.01653848,-1.00399315,-1.7704823,-0.87140572,206.7468414,26.40903473,-16.75396919,-23.00952339,-1.2175802,-1.45294499,162.4533081,0.15263888,-0.01090944,0.0124338,-0.98814362,-0.02793981,0.00326197,0.00452417,101.6260071,-25.02638626,26.46999931,0
1,12.08,604,0.00379119,0.00005715,-1.00684142,2.69460583,-0.31723806,203.2087708,26.03195,-18.5428257,-22.6152916,-1.25796223,-1.36527777,166.529953,0.11739285,-0.01054374,0.01229821,-0.99295342,-0.02830248,0.02172196,0.00737922,101.6260071,-25.02638626,26.46999931,0
1,12.1,605,0.00324357,0.03717194,-1.00274849,0.49387559,3.56120753,202.89357,24.43659019,-21.55264473,-21.4325943,-1.34042931,-1.21263289,170.5720978,0.08229484,-0.00958426,0.01252655,-0.99648321,-0.02561553,-0.01461378,0.00325366,101.6260071,-25.02638626,26.46999931,0
1,12.12,606,0.01804271,-0.02474163,-0.99514031,1.28105354,-0.63682324,203.5811462,22.84122849,-23.14273834,-21.58422279,-1.41294885,-1.12324286,174.6567078,0.04672757,-0.00921588,0.01277286,-0.99878353,-0.0385645,0.04855803,-0.00436534,101.6260071,-25.02638626,26.46999931,0
1,12.14,607,0.01487617,-0.0141908,-1.01389766,-0.48666832,1.27701592,215.3927002,20.52070427,-23.99457359,-20.85640335,-1.4947077,-0.99728084,178.9706268,0.00909572,-0.00858455,0.01312056,-0.99983579,-0.03316987,0.03979147,0.01439291,101.6260071,-25.02638626,26.46999931,0
1,12.16,608,0.03195394,-0.03644454,-0.99426258,-0.40069452,-0.16539031,229.7196198,18.8383255,-25.13035583,-20.18924332,-1.58184445,-0.86827105,-176.3857422,-0.03142732,-0.00800783,0.01355757,-0.99938208,-0.04842361,0.06306275,-0.00524718,101.6260071,-25.02638626,26.46999931,0
1,12.18,609,0.02464326,0.01285081,-1.01948142,2.2734108,1.69353735,275.0026245,16.22773552,-26.12416458,-20.03761673,-1.61216736,-0.70872325,-170.8641052,-0.07954565,-0.00728489,0.01353088,-0.9967128,-0.03790306,0.01494404,0.01995613,101.6260071,-25.02638626,26.46999931,0
1,12.2,610,0.01435061,0.08326761,-0.99496341,7.67529249,-3.94810104,264.2460327,13.06602192,-27.5154953,-20.09826088,-1.53221405,-0.63823503,-165.6345215,-0.12494784,-0.00719719,0.01256922,-0.99205768,-0.02632848,-0.05582082,-0.00458795,101.6260071,-25.02638626,26.46999931,0
1,12.22,611,-0.02402706,0.06494723,-1.0156306,-2.63985872,-0.73553425,217.6209717,11.29662228,-28.33893585,-19.4917469,-1.62946808,-0.54081357,-161.3386383,-0.1620483,-0.00696194,0.01326591,-0.98666918,0.01403375,-0.03724712,0.01606458,101.6260071,-25.02638626,26.46999931,0
1,12.24,612,-0.02305324,0.05438632,-0.99720782,3.45248342,-0.21459013,162.745163,8.65702534,-28.16856766,-19.2491436,-1.59562433,-0.45629862,-158.1397553,-0.18953787,-0.00654947,0.01291634,-0.98176658,0.01440948,-0.02657459,-0.00236797,101.6260071,-25.02638626,26.46999931,0
1,12.26,613,-0.02916187,0.04600402,-1.00425899,2.84614325,1.53982294,119.98806,7.64179659,-27.77104568,-19.82533455,-1.58327746,-0.36607623,-155.8104858,-0.20946522,-0.0060183,0.0128402,-0.97771329,0.02209916,-0.01852454,0.00466168,101.6260071,-25.02638626,26.46999931,0
1,12.28,614,-0.02887583,0.00599224,-0.98796225,1.6348443,-0.42685786,77.31607819,6.9166317,-28.48090935,-19.70402908,-1.53689218,-0.2791664,-154.2507019,-0.22276667,-0.00536306,0.01253152,-0.97477651,0.02276858,0.02158368,-0.01163884,101.6260071,-25.02638626,26.46999931,0
1,12.3,615,0.06824821,-0.13363783,-1.03440464,-5.98945284,12.03489017,172.5554962,5.98842287,-29.30435181,-19.85565758,-1.62751901,0.02994422,-150.6374359,-0.25342038,-0.00334671,0.01380483,-0.96725208,-0.06887081,0.16099718,0.03478033,101.6260071,-25.02638626,26.46999931,0
1,12.32,616,0.08478359,-0.06673358,-0.99503332,9.87851334,2.42328405,281.8070984,2.27558374,-27.79944038,-19.55240059,-1.42671287,0.25236788,-144.899292,-0.30154634,-0.0016546,0.01253459,-0.95336777,-0.08281868,0.09341089,-0.00460798,101.6260071,-25.02638626,26.46999931,0
1,12.34,617,0.11871973,-0.00965664,-1.02388382,15.12399673,1.12466455,353.1293335,-2.94559574,-27.25994492,-18.94588661,-1.05887389,0.44857538,-137.7991486,-0.36001974,0.00032541,0.01002986,-0.93289071,-0.11252014,0.03215032,0.02415773,101.6260071,-25.02638626,26.46999931,0
1,12.36,618,0.13245688,-0.00304019,-0.9957388,24.4460907,7.05424213,376.2384033,-5.35313797,-27.08957672,-18.76393509,-0.54792666,0.70783842,-130.2841492,-0.42038393,0.00359469,0.00693507,-0.90731275,-0.12243696,0.01673599,-0.00411349,101.6260071,-25.02638626,26.46999931,0
1,12.38,619,0.03893182,0.05039646,-1.02501309,0.91078973,6.68536997,358.0604858,-10.40027714,-23.42668343,-18.40002632,-0.43084621,0.89965105,-123.153801,-0.47598702,0.00511489,0.00704332,-0.87940925,-0.02485323,-0.04161653,0.02515144,101.6260071,-25.02638626,26.46999931,0
1,12.4,620,0.0428057,0.01608486,-1.00739896,0.79686087,5.94735575,355.2225342,-12.69179726,-22.0637455,-18.67296028,-0.29947582,1.06214929,-116.0095596,-0.52984476,0.00647617,0.0071274,-0.84803993,-0.02568466,-0.00961615,0.0075669,101.6260071,-25.02638626,26.46999931,0
1,12.42,621,0.08981084,-0.01418054,-0.96595818,-7.33640862,4.46113729,397.8993835,-16.23059654,-16.7255764,-18.30904961,-0.33041644,1.2091583,-107.9949493,-0.58781064,0.00684135,0.00853502,-0.80892462,-0.07024777,0.01892141,-0.03383902,101.6260071,-25.02638626,26.46999931,0
1,12.44,622,0.05812144,0.04154568,-1.01138961,-23.35047913,3.72389865,434.3592529,-19.18926239,-11.98368931,-18.73361206,-0.61099309,1.34959877,-99.295578,-0.64747852,0.00552294,0.01168849,-0.7619741,-0.03595431,-0.03325881,0.01167063,101.6260071,-25.02638626,26.46999931,0
1,12.46,623,0.00206026,0.07026325,-1.0186106,-6.59945679,-6.71523476,426.163208,-19.82740974,-8.20721817,-19.06719208,-0.50095093,1.33944619,-90.82623291,-0.70197195,0.00525577,0.01131839,-0.71209526,0.0211386,-0.05909085,0.01894261,101.6260071,-25.02638626,26.46999931,0
1,12.48,624,0.01346728,0.09286015,-0.99685073,-2.69720507,3.16747069,379.8593445,-20.5235672,-3.40854311,-18.61230659,-0.36071113,1.45775247,-83.28816986,-0.74724966,0.00610093,0.01159769,-0.66441423,0.01133782,-0.08576164,-0.00281627,101.6260071,-25.02638626,26.46999931,0
1,12.5,625,0.013471,0.08233052,-1.00182617,2.14716578,1.81844437,332.7668762,-20.23350143,-1.13698149,-18.8549099,-0.15201555,1.52852011,-76.68782043,-0.78424186,0.00723456,0.01128427,-0.62031054,0.01260377,-0.07809985,0.0021755,101.6260071,-25.02638626,26.46999931,0
1,12.52,626,0.00127519,0.07472307,-1.00939798,1.49014401,-1.95104492,285.2156067,-19.71138382,1.98641729,-19.76468086,0.03195962,1.51259863,-71.0587616,-0.81374472,0.00789746,0.01057995,-0.58107251,0.0254766,-0.07345436,0.00975691,101.6260071,-25.02638626,26.46999931,0
1,12.54,627,0.02868308,-0.10867206,-0.99056256,-2.73320174,4.23814058,238.6005859,-19.18926239,3.34935331,-19.21882057,0.12823869,1.63672078,-66.16841888,-0.83777463,0.00873401,0.01135612,-0.54582828,-0.0018278,0.10755686,-0.00907611,101.6260071,-25.02638626,26.46999931,0
1,12.56,628,0.08181199,-0.0719956,-1.0223459,-2.86735797,0.59942073,333.1395874,-17.79695129,6.67151356,-20.34086418,0.29788488,1.63968599,-59.40019989,-0.86852044,0.00934705,0.0111409,-0.49544001,-0.05303013,0.06912377,0.02276465,101.6260071,-25.02638626,26.46999931,0
1,12.58,629,0.09982774,0.01731353,-0.99465519,2.20424318,-3.03009439,394.2450256,-15.76648998,9.62454414,-20.03761673,0.5601669,1.53367162,-51.48130035,-0.90064931,0.01021521,0.0099324,-0.43431297,-0.07219321,-0.0249703,-0.00493282,101.6260071,-25.02638626,26.46999931,0
1,12.6,630,0.06634544,0.0455394,-1.02501214,2.54073048,0.10900495,411.7137756,-14.60622978,10.93069077,-20.03761673,0.84313995,1.43842125,-43.24242783,-0.92950773,0.01146448,0.00895789,-0.36851552,-0.04018458,-0.0574464,0.02542605,101.6260071,-25.02638626,26.46999931,0
1,12.62,631,0.0959674,-0.00318083,-0.99668723,0.17107581,3.18844986,418.7398987,-12.37272453,13.20225525,-19.4917469,1.04523754,1.36872935,-34.83106995,-0.95401889,0.01227726,0.00866633,-0.29936954,-0.07154996,-0.01369415,-0.00287186,101.6260071,-25.02638626,26.46999931,0
1,12.64,632,0.10433891,-0.03228212,-1.00568414,-2.39200687,0.63108224,450.3130798,-11.03842354,14.48000622,-19.61305237,1.20149803,1.20010197,-25.77854156,-0.97467148,0.01255609,0.00786953,-0.22315004,-0.08182196,0.01268791,0.00613028,101.6260071,-25.02638626,26.46999931,0
1,12.66,633,0.11379246,-0.03057389,-0.99831337,0.86176372,-1.69038033,477.9969788,-8.13776779,16.49601746,-19.61305237,1.40231991,0.97092003,-16.21458817,-0.98988146,0.01330931,0.00666174,-0.14111425,-0.09520662,0.0080215,-0.00125852,101.6260071,-25.02638626,26.46999931,0
1,12.68,634,0.11236667,0.00157128,-1.0138036,0.50717843,-0.20247281,469.6142578,-7.00651169,16.86515045,-19.12784576,1.56831741,0.73106009,-6.85921431,-0.99809009,0.01404254,0.00554894,-0.05990252,-0.09757536,-0.02725457,0.01424368,101.6260071,-25.02638626,26.46999931,0
1,12.7,635,0.10461856,0.0276599,-1.00896847,8.35249996,-3.37880588,443.2427979,-4.2218852,18.45524216,-19.30979538,1.81516671,0.41008642,1.98435628,-0.99971926,0.01577521,0.00385196,0.01725695,-0.09445444,-0.05760672,0.00947051,101.6260071,-25.02638626,26.46999931,0
1,12.72,636,0.10279568,0.09931174,-1.0049926,-4.28664827,2.68338966,439.2621765,-1.81433928,19.67620659,-18.4606781,1.78482413,0.18059386,10.76597881,-0.99547029,0.01535836,0.00302996,0.09377678,-0.09753435,-0.13088785,0.00550556,101.6260071,-25.02638626,26.46999931,0
1,12.74,637,0.11377568,0.08070581,-1.00369978,6.31120443,0.27319121,441.1899109,0.30313686,20.32928085,-18.40002632,1.90045023,-0.09781325,19.58369827,-0.98529387,0.01648734,0.00197936,0.17005976,-0.11311392,-0.11319146,0.00422875,101.6260071,-25.02638626,26.46999931,0
1,12.76,638,0.10697918,0.05447784,-1.01697433,3.02305174,0.44352302,435.4752197,3.58088064,20.41446304,-18.30904961,1.93364811,-0.3965483,28.27451324,-0.96955526,0.01720742,0.000766,0.24426593,-0.1109295,-0.08773883,0.01753618,101.6260071,-25.02638626,26.46999931,0
1,12.78,639,0.10726,0.06807905,-1.00357151,8.09903812,-0.92362332,425.3366089,5.4372983,20.72680473,-17.91481781,2.00982857,-0.70896196,36.76042557,-0.94878668,0.01859367,-0.00034025,0.31536967,-0.11701947,-0.10259545,0.00421603,101.6260071,-25.02638626,26.46999931,0
1,12.8,640,0.0777364,0.0890843,-0.99602848,0.24105226,0.05505815,408.7008362,8.65702534,19.39226151,-17.55090714,1.90005577,-0.98656321,44.89141464,-0.92402595,0.01861032,-0.00162569,0.38187295,-0.09278943,-0.12330929,-0.00327147,101.6260071,-25.02638626,26.46999931,0
1,12.82,641,0.07093491,0.08659966,-0.98081261,6.98658085,1.23158443,376.2406616,10.19437313,19.87496758,-18.24839783,1.84125853,-1.20937252,52.34525681,-0.89722872,0.01907345,-0.00238375,0.44114774,-0.09026469,-0.12070213,-0.01841808,101.6260071,-25.02638626,26.46999931,0
1,12.84,642,0.01740323,0.09503969,-1.02000654,4.09840631,0.52417666,324.9763489,13.41410065,18.73918724,-18.09676933,1.79358721,-1.38107002,58.78113556,-0.87103224,0.01954978,-0.00281889,0.49082878,-0.04016491,-0.12569958,0.02073645,101.6260071,-25.02638626,26.46999931,0
1,12.86,643,0.00360487,0.07316054,-1.00558877,-4.56536818,-0.97578347,276.4351807,16.05369568,18.05771828,-18.00579262,1.57372272,-1.56798577,64.24663544,-0.84664661,0.01890443,-0.00428529,0.5318023,-0.02917931,-0.10254676,0.00634884,101.6260071,-25.02638626,26.46999931,0
1,12.88,644,-0.00162894,0.05979864,-0.99987692,6.84911633,-0.27658182,229.6005096,16.11170959,17.00711823,-17.94514084,1.5664742,-1.68909335,68.78260803,-0.82491881,0.0196037,-0.00444162,0.56489378,-0.02699116,-0.0872348,0.00066331,101.6260071,-25.02638626,26.46999931,0
1,12.9,645,-0.01633106,0.04383527,-1.00119793,-2.69616008,0.69825321,183.4164887,18.57726669,16.92193604,-17.85416412,1.41014588,-1.76438665,72.38814545,-0.80675292,0.01902097,-0.00515859,0.5905602,-0.01392389,-0.06964386,0.00198938,101.6260071,-25.02638626,26.46999931,0
1,12.92,646,-0.02110723,0.04508358,-1.00267231,3.16825509,-0.02842304,133.7109375,19.47646904,16.21207237,-17.85416412,1.38893247,-1.83477318,74.99507904,-0.79310161,0.01936031,-0.00532457,0.60875845,-0.01047859,-0.06938808,0.00346681,101.6260071,-25.02638626,26.46999931,0
1,12.94,647,-0.01375574,-0.01409805,-0.9976579,1.24258387,2.62195468,91.22222137,19.91156769,15.61578941,-18.15742111,1.36020207,-1.80707467,76.8183136,-0.78332543,0.01909608,-0.00498224,0.62129855,-0.01840549,-0.00952579,-0.00154561,101.6260071,-25.02638626,26.46999931,0
1,12.96,648,0.03281904,-0.10779316,-1.01226711,-2.38820314,1.80063069,114.801178,20.81077194,14.99110699,-18.91556358,1.27171052,-1.82701755,79.20780182,-0.77021188,0.01871192,-0.00520937,0.63749236,-0.06432289,0.08520802,0.01301894,101.6260071,-25.02638626,26.46999931,0
1,12.98,649,0.07120402,-0.15421458,-1.01076126,1.15761924,2.22694969,216.2951813,21.85500717,14.25285149,-18.27872658,1.15530956,-1.89132726,83.68190002,-0.74474925,0.01851872,-0.00557069,0.66706413,-0.10322344,0.13282001,0.01150315,101.6260071,-25.02638626,26.46999931,0
1,13,650,0.10110262,-0.09352275,-0.99574471,-1.75311732,1.58177173,323.1957703,24.17553139,12.06647205,-18.76393509,0.87900013,-1.98710358,90.24373627,-0.70538032,0.01769844,-0.00680001,0.70857549,-0.13507123,0.07508475,-0.00350733,101.6260071,-25.02638626,26.46999931,0
1,13.02,651,0.06974554,-0.00392329,-1.00009644,-7.17113113,-5.52709532,372.8016968,25.50983429,10.47637939,-19.37044907,0.48491526,-2.17471766,97.70581055,-0.65780979,0.01707378,-0.00930058,0.75293308,-0.10633945,-0.00773004,0.00083627,101.6260071,-25.02638626,26.46999931,0
1,13.04,652,0.06821397,0.07431045,-1.01060915,5.89002132,1.53395128,371.7893677,26.67009354,7.2110095,-19.76468086,0.30641097,-2.21056581,105.130188,-0.60770375,0.01694184,-0.00960252,0.79392499,-0.10624503,-0.08151208,0.01135883,101.6260071,-25.02638626,26.46999931,0
1,13.06,653,0.04324524,0.1094875,-1.01762748,5.87008667,-1.30157459,347.4500427,27.74333763,4.76907969,-19.91630936,0.15754119,-2.27600121,112.0230331,-0.55889314,0.01723575,-0.00996287,0.82900071,-0.08208455,-0.11338557,0.0183899,101.6260071,-25.02638626,26.46999931,0
1,13.08,654,0.0176669,0.09038096,-0.99546278,3.66549015,-0.80472177,299.2947083,28.72955894,2.27036119,-20.00728607,-0.01470355,-2.29597092,117.9520111,-0.51529604,0.01710271,-0.01043581,0.85677803,-0.05766857,-0.09188442,-0.0037354,101.6260071,-25.02638626,26.46999931,0
1,13.1,655,-0.01262134,0.06128314,-1.00413299,2.62867928,-0.98708081,249.5150604,29.57074928,-1.81844938,-20.46217155,-0.15638371,-2.30139875,122.8837891,-0.47797722,0.01698651,-0.01079868,0.87814158,-0.0275866,-0.05953742,0.00494335,101.6260071,-25.02638626,26.46999931,0
1,13.12,656,-0.02763588,0.05096927,-1.00118804,1.28119671,-0.06922727,196.2414856,29.39671135,-1.44932055,-20.43184853,-0.28721264,-2.29852891,126.7302322,-0.44825715,0.0168052,-0.01123162,0.8936761,-0.01254423,-0.04697389,0.00200383,101.6260071,-25.02638626,26.46999931,0
1,13.14,657,-0.02552094,0.04280359,-0.99714941,1.18718815,-0.92404771,141.6686859,29.51273727,-4.14680099,-20.61380005,-0.38218826,-2.29393482,129.506958,-0.42648676,0.01668267,-0.01155353,0.90426624,-0.01473241,-0.03700594,-0.00202324,101.6260071,-25.02638626,26.46999931,0
1,13.16,658,-0.0338666,0.04623223,-1.00592089,0.03877176,1.21061611,94.92185211,29.45472336,-3.57891035,-19.97696304,-0.46837229,-2.28108692,131.3279877,-0.41207644,0.01645211,-0.01192588,0.91092271,-0.00589566,-0.03867947,0.00674033,101.6260071,-25.02638626,26.46999931,0
1,13.18,659,-0.03567764,0.03810919,-1.00681341,1.2563194,-1.83433497,46.53442764,29.39671135,-5.28258181,-19.94663239,-0.47722751,-2.3060317,132.2012329,-0.40512308,0.01671019,-0.01195895,0.91403121,-0.00434413,-0.02972293,0.0076498,101.6260071,-25.02638626,26.46999931,0
1,13.2,660,0.05383385,-0.18085398,-1.00839531,5.38945532,13.46269417,67.06629181,29.22267151,-5.16900396,-19.94663239,-0.44314238,-2.09698749,133.7771606,-0.39251724,0.01531225,-0.01073872,0.91955453,-0.09139587,0.18843751,0.00913173,101.6260071,-25.02638626,26.46999931,0
1,13.22,661,0.10993032,-0.15127811,-1.01589048,10.86709499,1.51432109,239.8858948,28.99061966,-6.7307024,-19.85565758,-0.36527202,-2.01754665,138.7627106,-0.35214269,0.01535537,-0.00918263,0.93577528,-0.1460683,0.15892912,0.01657307,101.6260071,-25.02638626,26.46999931,0
1,13.24,662,0.13471691,0.00533634,-0.99681717,25.59007072,4.44469738,358.7727661,27.94638252,-11.2454319,-19.88598824,-0.13613561,-1.89499843,146.0062866,-0.29229835,0.01546669,-0.00596982,0.95618355,-0.16880599,-0.00154751,-0.00259372,101.6260071,-25.02638626,26.46999931,0
1,13.26,663,0.1093595,0.03082513,-0.98334092,-2.26499772,4.53652716,397.5128479,27.33724594,-12.75034237,-20.34086418,-0.45739886,-1.76508129,153.9766998,-0.22518112,0.01410844,-0.00735647,0.97418708,-0.14146395,-0.02628812,-0.01613212,101.6260071,-25.02638626,26.46999931,0
1,13.28,664,0.04937774,0.03065815,-1.01064742,-4.50779819,4.53240347,411.9195557,25.48082542,-16.49841881,-19.88598824,-0.78581357,-1.57975233,162.2097321,-0.15470205,0.01255913,-0.0089059,0.98784119,-0.07873986,-0.0194972,0.01114212,101.6260071,-25.02638626,26.46999931,0
1,13.3,665,0.01935631,0.04573129,-1.00868535,-2.2784791,3.63076401,395.9445801,23.7694397,-17.54901505,-19.82533455,-1.03826249,-1.39193928,170.0914459,-0.08646104,0.01131837,-0.01007486,0.99614,-0.04527896,-0.02967987,0.00915129,101.6260071,-25.02638626,26.46999931,0
1,13.32,666,0.00395216,0.04534215,-0.98494172,-12.57951641,3.10087943,365.0582886,20.14362144,-20.78599167,-20.12859154,-1.48758256,-1.18631005,177.350708,-0.02324906,0.0100486,-0.01321638,0.99959189,-0.02650819,-0.02403569,-0.01457435,101.6260071,-25.02638626,26.46999931,0
1,13.34,667,-0.03598255,0.05011036,-1.02899146,-12.28479385,-4.81510115,333.0254517,18.75130653,-22.23411369,-20.12859154,-1.80179214,-1.07137501,-176.0587921,0.03423471,0.00988333,-0.01539151,0.99924648,0.01609403,-0.01993963,0.02964598,101.6260071,-25.02638626,26.46999931,0
1,13.36,668,-0.02290923,0.0595029,-0.99848747,-1.04988015,1.96244395,278.710907,16.02469063,-22.57484818,-19.52207756,-1.91988873,-0.86662769,-170.5578766,0.08216517,0.00891482,-0.01607372,0.99644923,0.00620403,-0.027443,-0.00085822,101.6260071,-25.02638626,26.46999931,0
1,13.38,669,-0.02539346,0.0577508,-0.99781364,0.02641187,2.12999845,227.9554291,12.80496311,-24.05136299,-19.37044907,-1.98949587,-0.67932367,-166.0656586,0.1211786,0.00798936,-0.01651326,0.99246126,0.01206236,-0.02405099,-0.00152906,101.6260071,-25.02638626,26.46999931,0
1,13.4,670,-0.01042583,-0.01585266,-0.9991098,6.3680892,4.95263433,193.7527618,11.61569405,-24.73283195,-19.73435974,-1.92881191,-0.4557021,-162.1805573,0.15478918,0.00653498,-0.01601221,0.98779619,0.00031593,0.04990538,-0.00025831,101.6260071,-25.02638626,26.46999931,0
1,13.42,671,0.00683799,0.00649806,-1.01514316,-2.06226683,-2.35821509,198.3650513,8.91808414,-24.78961945,-19.12784576,-1.99174106,-0.36465028,-158.2367096,0.18869746,0.00640554,-0.0164671,0.98187631,-0.01396577,0.0282874,0.01577388,101.6260071,-25.02638626,26.46999931,0
1,13.44,672,0.0039531,-0.00253085,-0.99085087,1.30683851,3.89207721,195.7097626,7.46775627,-25.47108841,-18.64262962,-1.99005544,-0.14508724,-154.3090668,0.22226752,0.00509502,-0.01664956,0.97483033,-0.0086431,0.03706337,-0.0085413,101.6260071,-25.02638626,26.46999931,0
1,13.46,673,0.02819823,-0.03511368,-1.00541532,-0.76073474,1.41211069,218.961853,4.97319174,-24.84641075,-19.06719208,-2.01404428,0.04328384,-149.8930206,0.25968742,0.00419988,-0.01706992,0.96553272,-0.02926248,0.07015005,0.00603015,101.6260071,-25.02638626,26.46999931,0
1,13.48,674,0.0592191,-0.06069076,-1.01346993,6.31353521,2.43089032,262.2594299,1.81148136,-25.04517174,-19.2491436,-1.86206496,0.2780697,-144.5847931,0.30415642,0.0026309,-0.01621694,0.95248049,-0.05674113,0.09502406,0.01406331,101.6260071,-25.02638626,26.46999931,0
1,13.5,675,0.09344286,-0.02672442,-1.01570666,24.97677422,2.78573847,309.9995728,-0.10295472,-24.76122665,-19.61305237,-1.30790782,0.51367539,-138.3480988,0.35555184,-0.00013173,-0.01226121,0.93457615,-0.08650512,0.0550046,0.01613471,101.6260071,-25.02638626,26.46999931,0
1,13.52,676,0.08358199,0.00129082,-0.96377403,9.40718555,5.9567337,336.6302795,-4.16387033,-22.51805687,-18.67296028,-1.10404778,0.76184702,-131.6031342,0.40992886,-0.00211478,-0.01151273,0.91204238,-0.07179697,0.01810561,-0.03596716,101.6260071,-25.02638626,26.46999931,0
1,13.54,677,0.07075558,-0.02431925,-1.00867486,-4.7377243,4.79003286,360.800354,-6.51340151,-22.34769058,-19.03686905,-1.09396124,0.99919128,-124.360054,0.46672988,-0.00325619,-0.0125119,0.88430536,-0.05538308,0.04359946,0.00897946,101.6260071,-25.02638626,26.46999931,0
1,13.56,678,0.04201994,0.02827525,-0.98849368,-18.11939049,0.43047169,377.3473511,-10.08120728,-18.31566811,-18.15742111,-1.35829043,1.15446806,-116.8258362,0.5238325,-0.00237304,-0.01537301,0.85167933,-0.02291012,-0.00779537,-0.01111316,101.6260071,-25.02638626,26.46999931,0
1,13.58,679,-0.00283131,0.09590762,-1.03609264,-9.76999855,4.93420124,360.4727783,-11.3284893,-16.24286842,-19.00653839,-1.34999657,1.42363751,-109.6613998,0.5760299,-0.00336965,-0.01678464,0.81724942,0.02522551,-0.07059317,0.03666515,101.6260071,-25.02638626,26.46999931,0
1,13.6,680,0.01784277,0.07020517,-0.99621081,7.05025816,-4.41815901,330.5554199,-13.91007233,-13.1194706,-19.00653839,-1.05023396,1.48385692,-103.0822296,0.62196785,-0.00443948,-0.01522917,0.78288221,0.00731493,-0.04927268,-0.00325255,101.6260071,-25.02638626,26.46999931,0
1,13.62,681,0.01527045,0.06228737,-0.99925077,-0.91223413,0.50055301,300.8084412,-14.80927372,-9.11584282,-19.2491436,-0.91255081,1.60697091,-97.10746765,0.66191524,-0.00524037,-0.01525039,0.74940526,0.01171117,-0.04526842,-0.00024004,101.6260071,-25.02638626,26.46999931,0
1,13.64,682,0.01371228,0.04589009,-1.00807762,0.54423553,2.24540997,267.0823059,-16.14357758,-7.86648321,-18.94588661,-0.74850273,1.71440995,-91.80101776,0.69588405,-0.00619832,-0.0151011,0.71796858,0.01565969,-0.03135364,0.00861513,101.6260071,-25.02638626,26.46999931,0
1,13.66,683,0.01534354,0.01119604,-1.0064069,0.3514531,3.63671875,247.1930695,-16.52066231,-5.50973845,-19.21882057,-0.5789035,1.84287596,-86.85725403,0.72618413,-0.00738669,-0.01515114,0.68729365,0.01571409,0.00060138,0.00695947,101.6260071,-25.02638626,26.46999931,0
1,13.68,684,0.04567792,-0.02208151,-0.99813539,2.95984554,1.73429668,259.3708191,-16.52066231,-3.60730481,-19.70402908,-0.36519116,1.91202998,-81.63227844,0.75673676,-0.00849417,-0.01470997,0.65349907,-0.01303063,0.03007808,-0.00129899,101.6260071,-25.02638626,26.46999931,0
1,13.7,685,0.05847419,-0.03384955,-1.00049233,0.80492467,0.25760302,295.5977173,-16.86873817,-0.88143104,-19.46142387,-0.14860943,1.94660413,-75.66413116,0.789711,-0.00939452,-0.01421145,0.61324263,-0.02500271,0.03852133,0.0010641,101.6260071,-25.02638626,26.46999931,0
1,13.72,686,0.07628133,-0.01904511,-0.99934024,0.14487551,-0.72942561,338.4281311,-15.88251877,-0.05798935,-20.15891457,0.07720637,1.94308102,-68.83633423,0.82480919,-0.0101396,-0.01360662,0.56515646,-0.04223686,0.0195015,-0.00007945,101.6260071,-25.02638626,26.46999931,0
1,13.74,687,0.07337448,0.00408453,-1.00098598,1.08840013,2.04982853,370.2066345,-15.04132843,3.49132609,-19.46142387,0.33655322,1.95183229,-61.39157104,0.85973597,-0.01121962,-0.01314664,0.51044625,-0.03933368,-0.00771468,0.00157288,101.6260071,-25.02638626,26.46999931,0
1,13.76,688,0.06221773,0.04834477,-1.01484537,-1.56524491,0.65617079,386.8354492,-14.25814915,3.91724443,-19.82533455,0.58905411,1.91152942,-53.65699768,0.89218688,-0.01211464,-0.01256514,0.45132911,-0.02850607,-0.05589171,0.01544291,101.6260071,-25.02638626,26.46999931,0
1,13.78,689,0.06669143,0.06127859,-1.00107992,5.60049725,-1.84433162,377.3481751,-13.62000656,7.80729437,-19.6433754,0.93064988,1.77321863,-46.1377182,0.91984493,-0.01353398,-0.01105394,0.39189279,-0.03444147,-0.07502335,0.001696,101.6260071,-25.02638626,26.46999931,0
1,13.8,690,0.04607025,0.03421213,-1.00663865,1.19444907,0.66871518,355.9650879,-11.93762493,10.47637939,-19.91630936,1.16985786,1.65746737,-39.0247345,0.9423725,-0.0144522,-0.01022279,0.334097,-0.01593267,-0.05255658,0.00726189,101.6260071,-25.02638626,26.46999931,0
1,13.82,691,0.06541078,-0.03205492,-1.00147557,-2.87455893,2.38937235,362.1599731,-10.6903429,11.15784836,-20.03761673,1.33336449,1.56225538,-31.73304558,0.96170342,-0.01491812,-0.00993172,0.27350587,-0.03741456,0.01022967,0.0021061,101.6260071,-25.02638626,26.46999931,0
1,13.84,692,0.08377191,-0.01650071,-0.99666119,-1.67088866,0.98247731,398.8573608,-8.63087749,13.06028175,-19.6433754,1.50528789,1.38867998,-23.713871,0.97847474,-0.01534422,-0.00915986,0.20559157,-0.05808385,-0.00841548,-0.0026977,101.6260071,-25.02638626,26.46999931,0
1,13.86,693,0.07962519,-0.00678208,-1.02079463,3.78050399,-1.33634317,430.1777954,-8.48584461,14.45161152,-19.6433754,1.79455602,1.1112349,-15.07647991,0.99116945,-0.01679574,-0.00755793,0.13131611,-0.05748706,-0.02160309,0.02144426,101.6260071,-25.02638626,26.46999931,0
1,13.88,694,0.1078937,-0.0111787,-0.98396897,-0.81803274,2.12711835,455.9606018,-5.87525511,14.84913826,-19.67370605,1.92017817,0.85072988,-5.94146442,0.99848199,-0.01711764,-0.00654456,0.05194134,-0.09089283,-0.02174616,-0.01534366,101.6260071,-25.02638626,26.46999931,0
1,13.9,695,0.07686451,0.02483765,-1.01027417,-6.7780242,1.1223774,468.8479004,-2.56851149,17.80216789,-18.12709808,1.9226985,0.55450684,3.4129374,0.99940658,-0.0166262,-0.00533576,-0.02969339,-0.06461872,-0.05815101,0.01090502,101.6260071,-25.02638626,26.46999931,0
1,13.92,696,0.09495959,0.05494571,-1.00335109,9.67088127,-3.09039092,440.6299133,-0.88613051,18.76758003,-18.2180748,2.15622139,0.18535638,12.17861462,0.99418372,-0.01853772,-0.00360404,-0.1060293,-0.08853128,-0.09082912,0.00401779,101.6260071,-25.02638626,26.46999931,0
1,13.94,697,0.07722668,0.04835875,-1.00927293,-3.01553059,3.021842,414.8224487,2.39160943,18.79597473,-17.94514084,2.12929559,-0.06250715,20.44564819,0.98395324,-0.01838236,-0.00276089,-0.17745604,-0.07617661,-0.08536037,0.00995885,101.6260071,-25.02638626,26.46999931,0
1,13.96,698,0.08932534,0.06676091,-1.00376439,3.38164377,-2.24621463,392.5491638,3.60988426,19.39226151,-17.4296093,2.19069624,-0.37969169,28.2565918,0.96955365,-0.01934656,-0.00145352,-0.24410936,-0.09349573,-0.10421873,0.0044762,101.6260071,-25.02638626,26.46999931,0
1,13.98,699,0.10570487,0.08494093,-1.00293732,10.64043236,-5.65984869,359.2160339,6.30749607,19.90336227,-17.4296093,2.31975317,-0.75933099,35.38822556,0.95243597,-0.02129782,0.00015939,-0.30399397,-0.1156293,-0.12469918,0.00377933,101.6260071,-25.02638626,26.46999931,0
1,14,700,0.06693596,0.079024,-1.00186551,1.00376689,1.82172728,324.4757996,7.58378172,19.449049,-17.18699837,2.23146367,-0.98223692,41.83453751,0.93382597,-0.02124765,0.00105351,-0.35709453,-0.08236211,-0.11888075,0.00277959,101.6260071,-25.02638626,26.46999931,0
1,14.02,701,0.01502629,0.1078549,-1.01021636,1.02306914,-0.10682856,283.3345032,10.45543194,19.87496758,-17.18699837,2.14156604,-1.21631193,47.42903137,0.91526955,-0.0213767,0.00220083,-0.40226835,-0.0341609,-0.14590262,0.01112419,101.6260071,-25.02638626,26.46999931,0
1,14.04,702,-0.00128483,0.07824945,-0.99658179,3.65477037,1.79560661,232.1507721,12.28284454,18.99473763,-17.0353775,2.1089592,-1.34602332,52.00955963,0.89844865,-0.02168789,0.00248681,-0.43853581,-0.02132231,-0.11531184,-0.0024753,101.6260071,-25.02638626,26.46999931,0
1,14.06,703,-0.01155139,0.06342226,-1.00275886,0.07807804,-1.72849977,180.8757172,12.86297607,18.93794823,-17.4296093,2.02699161,-1.50990832,55.55231857,0.88445127,-0.02178778,0.00341384,-0.46611124,-0.01335769,-0.09949725,0.00372072,101.6260071,-25.02638626,26.46999931,0
1,14.08,704,0.01101454,-0.09220221,-0.99568164,2.1968565,4.1666522,137.8835449,14.25529099,16.95033264,-17.67221451,1.98081827,-1.50994873,58.39381409,0.87263125,-0.02151429,0.00306948,-0.48789597,-0.03762612,0.05712712,-0.00334869,101.6260071,-25.02638626,26.46999931,0
1,14.1,705,0.03406265,-0.0496476,-1.01670921,-4.42361879,-2.9207778,198.6307678,14.69038773,16.32565308,-17.18699837,1.81254458,-1.68320346,62.41988373,0.85495484,-0.02113632,0.00436588,-0.51825327,-0.06200015,0.01735887,0.01762195,101.6260071,-25.02638626,26.46999931,0
1,14.12,706,0.04773784,0.00845801,-1.01020026,-0.92475551,-1.4970957,236.3971252,16.63382721,16.95033264,-17.4296093,1.65067959,-1.87813962,67.14025879,0.83288091,-0.02106181,0.00569022,-0.55302215,-0.07831604,-0.03911257,0.01113877,101.6260071,-25.02638626,26.46999931,0
1,14.14,707,0.00550407,0.07058167,-0.99454129,5.41383648,-0.1876543,212.0682068,18.66428566,15.81454945,-17.55090714,1.59395409,-1.99811423,71.33476257,0.81207228,-0.02146406,0.00605481,-0.5831306,-0.03969533,-0.09898072,-0.00447028,101.6260071,-25.02638626,26.46999931,0
1,14.16,708,0.01815592,-0.02153537,-1.00703382,-0.9436872,3.19160676,201.0135956,19.07037735,15.81454945,-17.45993233,1.45181382,-2.03970647,75.38495636,0.79097724,-0.02090529,0.00633821,-0.6114555,-0.05351825,-0.00457598,0.00800068,101.6260071,-25.02638626,26.46999931,0
1,14.18,709,0.05327872,-0.0565022,-1.00458038,2.36483765,-0.88115156,241.0872498,21.10083771,14.48000622,-17.82384109,1.31462336,-2.17215228,80.27021027,0.76419896,-0.02098617,0.00709681,-0.64460009,-0.08980334,0.03217931,0.00554407,101.6260071,-25.02638626,26.46999931,0
1,14.2,710,0.02875328,0.01814717,-1.01416695,1.38093948,-2.92745113,273.7716065,21.70997429,12.32202435,-17.49025536,1.13292062,-2.351403,85.74195099,0.73255968,-0.02120313,0.00831215,-0.68032169,-0.06807566,-0.03919699,0.01516283,101.6260071,-25.02638626,26.46999931,0
1,14.22,711,0.00655052,0.05665114,-0.99353081,-0.33807695,-0.36442399,250.3100281,23.62440681,11.44179344,-17.24765015,0.9125309,-2.45094228,90.69015503,0.70253128,-0.02080869,0.00936759,-0.7112869,-0.04873098,-0.07465754,-0.00541634,101.6260071,-25.02638626,26.46999931,0
1,14.24,712,0.00306407,0.0089862,-0.99337745,2.69020605,2.05089593,211.6453095,24.32056427,10.19243336,-18.33937263,0.77674776,-2.45905852,94.91799164,0.6758396,-0.02039142,0.00951449,-0.73670524,-0.04628036,-0.02373492,-0.0055793,101.6260071,-25.02638626,26.46999931,0
1,14.26,713,0.03516309,-0.04736083,-1.00584483,0.90873873,4.11360264,228.0935974,25.39380646,7.2961936,-17.70253563,0.60939407,-2.42975807,99.54156494,0.64560694,-0.01962063,0.00963393,-0.76335704,-0.0778302,0.03545845,0.00682666,101.6260071,-25.02638626,26.46999931,0
1,14.28,714,0.0689752,-0.01124154,-1.02023399,7.47181082,3.55205369,278.394104,26.84413338,5.28018236,-17.82384109,0.53513342,-2.4155643,105.1727371,0.60734528,-0.01957824,0.0090979,-0.79414457,-0.11099875,0.00155253,0.02116434,101.6260071,-25.02638626,26.46999931,0
1,14.3,715,0.07650496,0.00689301,-0.98558694,1.68637025,0.28972235,315.3146057,27.59830475,4.68389559,-17.79351234,0.26358524,-2.46246457,111.5004196,0.56262994,-0.01905552,0.01019223,-0.82642645,-0.11902074,-0.01495775,-0.01347553,101.6260071,-25.02638626,26.46999931,0
1,14.32,716,0.00141796,0.01587066,-1.01579738,0.37583944,-3.82985258,312.4273682,27.91737556,1.16297555,-19.03686905,0.01203899,-2.53371835,117.7191315,0.51700944,-0.0189775,0.01134353,-0.85569412,-0.04550357,-0.0171806,0.01677099,101.6260071,-25.02638626,26.46999931,0
1,14.34,717,0.01255869,0.01271519,-0.99920851,-2.03808999,2.64373422,293.4980164,28.55552101,-0.05798935,-18.8549099,-0.28548443,-2.47102475,123.5948868,0.47252643,-0.01782512,0.01238504,-0.88104928,-0.0562564,-0.01040476,0.00016731,101.6260071,-25.02638626,26.46999931,0
1,14.36,718,0.02407509,-0.02671351,-1.0068146,5.73091507,4.79872847,307.5531616,28.35247421,-3.01101995,-18.73361206,-0.42959124,-2.34343171,129.8039703,0.42414623,-0.0169282,0.01206792,-0.9053551,-0.06616768,0.03319361,0.00772216,101.6260071,-25.02638626,26.46999931,0
1,14.38,719,0.06627339,-0.0354867,-1.0078094,4.57023811,0.91753393,364.7115173,27.97538948,-5.14060974,-18.67296028,-0.6367557,-2.24841762,137.1960144,0.3649351,-0.01623937,0.01233191,-0.93080962,-0.10646894,0.0447228,0.0086607,101.6260071,-25.02638626,26.46999931,0
1,14.4,720,0.08418883,0.00087336,-1.00398648,-0.34219465,3.14087391,421.8579712,27.33724594,-9.31460381,-19.00653839,-0.95618552,-2.06483793,145.686264,0.29507479,-0.01475468,0.01328656,-0.95526779,-0.12189635,0.01303871,0.00479595,101.6260071,-25.02638626,26.46999931,0
1,14.42,721,0.09389865,-0.00249489,-1.00164306,2.67107391,1.84065497,454.8563538,24.58162308,-13.17625999,-18.4606781,-1.21619713,-1.83508503,154.8206024,0.21809383,-0.01331451,0.01384683,-0.97573882,-0.12826253,0.02157328,0.00241693,101.6260071,-25.02638626,26.46999931,0
1,14.44,722,0.09582433,-0.01755061,-1.0167222,6.7932477,2.60711503,485.9711914,23.47937393,-16.10089684,-18.7032814,-1.36387503,-1.55637753,164.5828705,0.13427308,-0.01186155,0.01361476,-0.99077994,-0.12561248,0.04042429,0.01742864,101.6260071,-25.02638626,26.46999931,0
1,14.46,723,0.12394539,0.04486258,-0.99195248,4.31099606,3.24581552,511.4745483,19.12839127,-18.91195297,-18.76393509,-1.55275857,-1.24176061,174.8029785,0.04547743,-0.01020977,0.01402647,-0.99881476,-0.14841233,-0.01989578,-0.00743509,101.6260071,-25.02638626,26.46999931,0
1,14.48,724,0.0728282,0.07774956,-1.00227749,-8.53874111,1.19467151,492.4213867,16.80786705,-20.64402008,-19.40077209,-1.90772462,-0.93649387,-175.4105225,-0.03989781,-0.00883122,0.01630618,-0.99903172,-0.09150245,-0.04765265,0.00290728,101.6260071,-25.02638626,26.46999931,0
1,14.5,725,0.00607832,0.04106703,-1.00222373,-5.39195013,1.75110447,445.3518066,12.19582558,-23.11434364,-18.58198357,-2.11897731,-0.58023888,-166.5536194,-0.11695875,-0.00719255,0.01777041,-0.99295175,-0.01948295,-0.0055896,0.00294485,101.6260071,-25.02638626,26.46999931,0
1,14.52,726,0.03665024,0.00365284,-1.01502633,2.35132551,4.10634136,424.0844116,9.93331528,-22.40447998,-18.7032814,-2.13892794,-0.17825221,-158.0794678,-0.1900668,-0.00507557,0.0180284,-0.98159248,-0.0435379,0.03354876,0.01574381,101.6260071,-25.02638626,26.46999931,0
1,14.54,727,0.08703118,-0.00202067,-0.99965215,1.31399107,3.96124434,430.8735352,5.29226542,-23.14273834,-19.00653839,-2.1142807,0.20881698,-149.4570007,-0.26338086,-0.00310186,0.01827791,-0.96451384,-0.08676422,0.03920357,0.00034541,101.6260071,-25.02638626,26.46999931,0
1,14.56,728,0.08932814,0.03245673,-0.98498338,2.16468382,0.58989125,437.8537598,0.41916627,-21.18351555,-18.7032814,-2.03560615,0.55603993,-140.71138,-0.33620453,-0.00140232,0.01836003,-0.94160903,-0.08311424,0.00359155,-0.01434615,101.6260071,-25.02638626,26.46999931,0
1,14.58,729,0.05970974,0.06504104,-1.01077199,-0.9647401,-0.36197758,431.7579346,-2.01738691,-21.01314926,-18.79425812,-1.9486171,0.83796781,-132.0969849,-0.40600786,-0.00022093,0.01850763,-0.91368222,-0.04741088,-0.03013862,0.01145779,101.6260071,-25.02638626,26.46999931,0
1,14.6,730,0.0502242,0.04929947,-0.99289829,0.86740053,2.72094417,422.2673645,-6.31035423,-18.94034958,-19.2491436,-1.78280985,1.16643095,-123.668663,-0.47208104,0.00162942,0.01851848,-0.88135922,-0.03287872,-0.01662797,-0.00641587,101.6260071,-25.02638626,26.46999931,0
1,14.62,731,0.05395827,0.05051149,-1.01398742,2.21666169,-3.2394588,406.6470337,-7.87670946,-15.61818886,-18.55165291,-1.55665219,1.34502387,-115.5640411,-0.53319103,0.00268745,0.01774862,-0.84580439,-0.03162244,-0.02117395,0.01466815,101.6260071,-25.02638626,26.46999931,0
1,14.64,732,0.05364225,0.02444153,-1.00223041,-1.11423945,4.01639223,393.6952515,-10.31325912,-12.83552551,-19.15816689,-1.38612235,1.61752462,-107.6910324,-0.59000063,0.00426066,0.0180924,-0.80718875,-0.02760536,0.00091833,0.0028922,101.6260071,-25.02638626,26.46999931,0
1,14.66,733,0.03345888,0.00726782,-1.00760925,-12.5006628,3.18037987,393.7409363,-12.57577133,-8.91708088,-19.4917469,-1.38144612,1.86726165,-99.8323822,-0.64392573,0.0047045,0.01971337,-0.76481956,-0.00284195,0.01688958,0.00837065,101.6260071,-25.02638626,26.46999931,0
1,14.68,734,0.07156438,0.05579005,-1.01007462,9.93528271,-2.3868978,375.5162048,-12.98186302,-6.50354671,-19.61305237,-0.95584857,1.96504414,-92.34680939,-0.69245559,0.00659508,0.01789061,-0.72120851,-0.03778483,-0.03553005,0.01085323,101.6260071,-25.02638626,26.46999931,0
1,14.7,735,0.03942423,0.04112287,-1.00290477,-3.36255312,2.50171661,358.3157654,-13.50398064,-3.15299273,-20.24988937,-0.74627513,2.12098098,-85.20530701,-0.73600584,0.00773522,0.01803038,-0.67669088,-0.00387884,-0.02581298,0.00365459,101.6260071,-25.02638626,26.46999931,0
1,14.72,736,0.03081534,0.04463253,-0.99547714,-3.43856859,-0.592834,321.4741516,-13.35894775,-1.53450465,-19.97696304,-0.57533777,2.19167185,-78.82234192,-0.77251995,0.00826343,0.0179628,-0.63468277,0.00673064,-0.0332823,-0.00375305,101.6260071,-25.02638626,26.46999931,0
1,14.74,737,0.03716961,0.04613376,-1.01400864,2.29507828,-2.12830305,288.1798706,-12.98186302,0.76545238,-20.70477486,-0.30421758,2.17936921,-73.08410645,-0.80330217,0.00919065,0.01685935,-0.59526217,0.00131688,-0.03847136,0.01477968,101.6260071,-25.02638626,26.46999931,0
