SensorId, TimeStamp (s), FrameNumber, AccX (g), AccY (g), AccZ (g), GyroX (deg/s), GyroY (deg/s), GyroZ (deg/s), MagX (uT), MagY (uT), MagZ (uT), EulerX (deg), EulerY (deg), EulerZ (deg), QuatW, QuatX, QuatY, QuatZ, LinAccX (g), LinAccY (g), LinAccZ (g), Pressure (kPa), Altitude (m), Temperature (degC), HeaveMotion (m)
1, 0.0000, 0, 0.00011262, -0.01253139, -1.00228894, -0.06326570, -0.01275551, -0.05412686, -54.54824829, 0.68026829, -62.79676819, 0.29485902, 0.85717231, -135.02201843, -0.38247657, 0.00789551, 0.00048382, -0.92393136, 0.01485557, 0.00737377, 0.00241421, 97.80700684, 297.05014038, 0.00000000, 0.00000000
1, 0.0200, 1, 0.00051594, -0.01148649, -1.00166345, -0.09375279, -0.01321085, -0.00414208, -54.43222809, -0.22835565, -62.64514542, 0.27862072, 0.87886924, -134.82528687, -0.38406226, 0.00801505, 0.00070093, -0.92327219, 0.01444293, 0.00636031, 0.00178846, 97.80700684, 297.05014038, 0.00000000, 0.00000000
1, 0.0400, 2, -0.00003040, -0.01235802, -1.00303817, 0.09153244, -0.22940162, 0.00306831, -54.89632797, 0.48150671, -62.85742569, 0.28049988, 0.87462932, -134.82511902, -0.38406378, 0.00798719, 0.00067159, -0.92327183, 0.01533580, 0.00748566, 0.00316720, 97.80700684, 297.05014038, 0.00000000, 0.00000000
1, 0.0600, 3, -0.00083880, -0.01201955, -1.00341916, -0.00870324, -0.31051037, 0.07016713, -55.15739059, 0.16916756, -63.19099808, 0.28082681, 0.86861813, -134.82360840, -0.38407609, 0.00793985, 0.00064891, -0.92326707, 0.01605339, 0.00713120, 0.00354686, 97.80700684, 297.05014038, 0.00000000, 0.00000000
1, 0.0800, 4, -0.00122709, -0.01181540, -0.99868149, -0.03753646, 0.17624637, -0.00768650, -54.72229385, 0.50990200, -63.00904846, 0.26094845, 0.90441680, -134.66484070, -0.38535476, 0.00816035, 0.00094038, -0.92273194, 0.01664921, 0.00710045, -0.00118847, 97.80700684, 297.05014038, 0.00000000, 0.00000000
1, 0.1000, 5, -0.00011540, -0.00999483, -1.00084114, 0.35088840, -0.55660504, -0.03772094, -54.31619644, 0.39632261, -63.03937912, 0.26980770, 0.89821690, -134.66560364, -0.38534835, 0.00814022, 0.00084814, -0.92273492, 0.01577706, 0.00543683, 0.00097418, 97.80700684, 297.05014038, 0.00000000, 0.00000000
1, 0.1200, 6, -0.00083300, -0.01461303, -1.00313795, -0.15027525, -0.19582888, -0.04365107, -54.43222809, -0.59748536, -64.19174194, 0.25233409, 0.93888164, -134.50558472, -0.38663590, 0.00840733, 0.00113734, -0.92219341, 0.01648806, 0.00990283, 0.00327153, 97.80700684, 297.05014038, 0.00000000, 0.00000000
1, 0.1400, 7, 0.00044276, -0.01379563, -1.00394726, -0.04985729, -0.14457779, -0.01299150, -54.54824829, 0.76545238, -63.52458572, 0.25156659, 0.93706566, -134.50614929, -0.38663152, 0.00839013, 0.00113735, -0.92219543, 0.01595188, 0.00939082, 0.00409142, 97.80700684, 297.05014038, 0.00000000, 0.00000000
1, 0.1600, 8, -0.00038166, -0.01166855, -1.00282001, -0.13252240, -0.02638211, -0.01627476, -54.63527298, 0.31114039, -64.16143036, 0.24881805, 0.93731153, -134.50692749, -0.38662544, 0.00838284, 0.00116024, -0.92219800, 0.01674133, 0.00729390, 0.00296340, 97.80700684, 297.05014038, 0.00000000, 0.00000000
1, 0.1800, 9, -0.00138452, -0.01080498, -1.00338662, -0.03248533, 0.05472016, -0.00406213, -54.66427994, 0.59508425, -62.82709885, 0.25615147, 0.90528888, -134.29890442, -0.38829976, 0.00814806, 0.00100796, -0.92149657, 0.01743955, 0.00638895, 0.00352530, 97.80700684, 297.05014038, 0.00000000, 0.00000000
1, 0.2000, 10, -0.00073021, -0.01223164, -1.00249565, -0.09315619, 0.06377398, -0.08208299, -54.46123123, 0.90742522, -63.19099808, 0.25444710, 0.90642363, -134.30017090, -0.38828960, 0.00815142, 0.00102542, -0.92150080, 0.01655103, 0.00777502, 0.00263066, 97.80700684, 297.05014038, 0.00000000, 0.00000000
1, 0.2200, 11, -0.00044776, -0.01327305, -1.00250876, -0.03221773, 0.04477439, -0.05409207, -54.66427994, 0.05558818, -62.85742569, 0.24333675, 0.93611342, -134.11314392, -0.38979259, 0.00835053, 0.00122901, -0.92086405, 0.01627498, 0.00884155, 0.00264375, 97.80700684, 297.05014038, 0.00000000, 0.00000000
1, 0.2400, 12, -0.00027903, -0.01156497, -1.00355244, 0.07915197, 0.02652122, 0.04260451, -54.57725906, -0.79624701, -62.76645279, 0.24467795, 0.93676150, -134.11241150, -0.38979834, 0.00836029, 0.00122049, -0.92086148, 0.01662714, 0.00730994, 0.00369519, 97.80700684, 297.05014038, 0.00000000, 0.00000000
1, 0.2600, 13, -0.00099363, -0.01200602, -1.00249302, 0.15129584, -0.05201976, -0.02153012, -54.43222809, -0.88143104, -62.67546082, 0.24743783, 0.93587029, -134.11315918, -0.38979214, 0.00836253, 0.00119523, -0.92086411, 0.01732957, 0.00770584, 0.00263570, 97.80700684, 297.05014038, 0.00000000, 0.00000000
1, 0.2800, 14, -0.00046545, -0.01291214, -1.00234675, -0.01102087, -0.02457537, -0.03776312, -54.40321732, 1.04939806, -62.82709885, 0.23096848, 0.96279210, -133.93191528, -0.39124817, 0.00852059, 0.00143264, -0.92024475, 0.01706307, 0.00876398, 0.00249317, 97.80700684, 297.05014038, 0.00000000, 0.00000000
1, 0.3000, 15, -0.00041552, -0.01284209, -1.00313222, -0.09401720, 0.12347312, -0.07932118, -54.02613068, 0.33953387, -63.00904846, 0.22906429, 0.96531665, -133.93328857, -0.39123714, 0.00853438, 0.00145645, -0.92024916, 0.01723789, 0.00880863, 0.00328180, 97.80700684, 297.05014038, 0.00000000, 0.00000000
1, 0.3200, 16, 0.00010841, -0.01077147, -1.00256336, -0.04303683, 0.08441932, -0.00254287, -54.43222809, -1.08019269, -63.49425507, 0.23416182, 0.94107074, -133.73352051, -0.39284155, 0.00835474, 0.00134729, -0.91956735, 0.01675217, 0.00678118, 0.00271343, 97.80700684, 297.05014038, 0.00000000, 0.00000000
1, 0.3400, 17, -0.00011924, -0.01175011, -1.00304794, -0.06306084, 0.07417106, -0.03246818, -54.08414459, -0.08638465, -63.58523178, 0.23370340, 0.94222140, -133.73428345, -0.39283529, 0.00836241, 0.00135486, -0.91956979, 0.01656097, 0.00767984, 0.00319139, 97.80700684, 297.05014038, 0.00000000, 0.00000000
1, 0.3600, 18, -0.00063851, -0.01340776, -1.00193393, 0.13904172, 0.08712371, 0.03462216, -53.70706177, 0.16916756, -63.28197479, 0.23644698, 0.94376171, -133.73370361, -0.39283982, 0.00838417, 0.00133817, -0.91956782, 0.01709923, 0.00929763, 0.00207787, 97.80700684, 297.05014038, 0.00000000, 0.00000000
1, 0.3800, 19, -0.00089042, -0.01248901, -1.00339031, -0.02135438, -0.00482365, -0.06644592, -54.63527298, -0.17156687, -63.40328217, 0.24727046, 0.93938732, -133.53807068, -0.39440855, 0.00838405, 0.00125063, -0.91889608, 0.01731542, 0.00825866, 0.00353410, 97.80700684, 297.05014038, 0.00000000, 0.00000000
1, 0.4000, 20, -0.00027700, -0.01091079, -1.00254810, -0.06313528, 0.07416863, -0.00272639, -54.34520721, -0.48390785, -63.64589310, 0.24575707, 0.94103944, -133.53775024, -0.39441124, 0.00839209, 0.00126848, -0.91889495, 0.01668030, 0.00660491, 0.00269187, 97.80700684, 297.05014038, 0.00000000, 0.00000000
1, 0.4200, 21, -0.00072903, -0.01241120, -1.00223577, 0.04778991, 0.10567366, -0.01278154, -54.02613068, 0.76545238, -63.43360901, 0.26047081, 0.88763356, -133.32637024, -0.39610690, 0.00801268, 0.00098144, -0.91816902, 0.01716923, 0.00811462, 0.00238018, 97.80700684, 297.05014038, 0.00000000, 0.00000000
1, 0.4400, 22, -0.00109661, -0.01366639, -1.00277650, 0.03764954, 0.11547716, -0.06175247, -54.31619644, 0.50990200, -63.46393967, 0.26177427, 0.88968027, -133.32695007, -0.39610207, 0.00803359, 0.00097803, -0.91817081, 0.01660739, 0.00911889, 0.00290716, 97.80700684, 297.05014038, 0.00000000, 0.00000000
1, 0.4600, 23, -0.00118308, -0.01262954, -1.00180221, -0.00219681, 0.05516901, 0.02526452, -53.73606491, -0.14317343, -63.10002518, 0.26275593, 0.89067066, -133.32617188, -0.39610815, 0.00804492, 0.00097364, -0.91816819, 0.01671428, 0.00806065, 0.00193327, 97.80700684, 297.05014038, 0.00000000, 0.00000000
1, 0.4800, 24, -0.00073023, -0.01243713, -1.00262058, 0.05951969, 0.00633124, -0.08692044, -53.99712753, 0.65187299, -63.70653915, 0.27887964, 0.88305789, -133.12918091, -0.39768529, 0.00803824, 0.00083195, -0.91748637, 0.01619682, 0.00769968, 0.00275140, 97.80700684, 297.05014038, 0.00000000, 0.00000000
1, 0.5000, 25, -0.00045040, -0.01159255, -1.00234735, -0.00277724, -0.01178024, -0.02366097, -54.25818253, -0.39872378, -63.19099808, 0.27981621, 0.88223249, -133.12940979, -0.39768335, 0.00803488, 0.00082157, -0.91748726, 0.01585490, 0.00672513, 0.00247787, 97.80700684, 297.05014038, 0.00000000, 0.00000000
1, 0.5200, 26, -0.00108164, -0.01200364, -1.00259793, 0.00802180, -0.05500617, 0.01632594, -54.49024200, 0.16916756, -62.61481476, 0.27787077, 0.88903737, -132.93057251, -0.39927459, 0.00808111, 0.00087479, -0.91679543, 0.01646109, 0.00711498, 0.00272811, 97.80700684, 297.05014038, 0.00000000, 0.00000000
1, 0.5400, 27, -0.00032881, -0.01223576, -1.00307190, 0.00713597, 0.00469214, 0.02900171, -54.51924515, 0.82224113, -63.43360901, 0.27738240, 0.88969105, -132.92997742, -0.39927933, 0.00808463, 0.00088102, -0.91679335, 0.01583986, 0.00739183, 0.00320388, 97.80700684, 297.05014038, 0.00000000, 0.00000000
1, 0.5600, 28, 0.00009355, -0.01212657, -1.00252843, -0.09380632, -0.00675788, -0.01964450, -54.37421036, -0.51230133, -63.43360901, 0.27582967, 0.88963670, -132.93028259, -0.39927697, 0.00807879, 0.00089323, -0.91679430, 0.01543228, 0.00730011, 0.00266049, 97.80700684, 297.05014038, 0.00000000, 0.00000000
1, 0.5800, 29, -0.00025617, -0.01316130, -1.00283897, -0.10524365, 0.08263956, -0.00544942, -54.51924515, 0.48150671, -62.91807175, 0.28623462, 0.86497587, -132.72488403, -0.40092006, 0.00791643, 0.00073824, -0.91607857, 0.01553966, 0.00823925, 0.00296800, 97.80700684, 297.05014038, 0.00000000, 0.00000000
1, 0.6000, 30, 0.00000831, -0.01209208, -1.00175917, -0.02375682, 0.03408718, 0.07045346, -54.46123123, 0.93581867, -63.49425507, 0.28561884, 0.86558855, -132.72309875, -0.40093437, 0.00791916, 0.00074543, -0.91607231, 0.01508625, 0.00710389, 0.00188552, 97.80700684, 297.05014038, 0.00000000, 0.00000000
1, 0.6200, 31, -0.00036522, -0.01162664, -1.00313401, -0.01843556, -0.06846130, 0.01569848, -54.46123123, 1.10618687, -62.91807175, 0.26577884, 0.89467049, -132.53669739, -0.40242404, 0.00808059, 0.00101894, -0.91541725, 0.01545863, 0.00665198, 0.00326030, 97.80700684, 297.05014038, 0.00000000, 0.00000000
1, 0.6400, 32, -0.00043023, -0.01203927, -1.00179386, 0.07252926, -0.06711154, 0.06402273, -54.28719330, 0.28274509, -62.82709885, 0.26755330, 0.89335161, -132.53540039, -0.40243429, 0.00807627, 0.00100022, -0.91541272, 0.01603111, 0.00738159, 0.00192638, 97.80700684, 297.05014038, 0.00000000, 0.00000000
1, 0.6600, 33, -0.00060867, -0.01229186, -1.00289810, 0.00257902, -0.10795338, -0.06573095, -54.20017624, -1.08019269, -63.10002518, 0.26735047, 0.89184082, -132.53651428, -0.40242547, 0.00806350, 0.00099646, -0.91541672, 0.01617990, 0.00762209, 0.00303028, 97.80700684, 297.05014038, 0.00000000, 0.00000000
1, 0.6800, 34, -0.00039868, -0.01237463, -1.00307369, -0.01049190, 0.08093613, 0.03237861, -54.22917938, 0.39632261, -63.34263611, 0.27894500, 0.84291977, -132.32695007, -0.40410027, 0.00771206, 0.00074612, -0.91468185, 0.01547464, 0.00759161, 0.00319895, 97.80700684, 297.05014038, 0.00000000, 0.00000000
1, 0.7000, 35, -0.00002834, -0.01202963, -1.00221264, -0.12090673, 0.02953869, -0.04771224, -54.72229385, 0.42471793, -63.34263611, 0.27711859, 0.84364861, -132.32792664, -0.40409264, 0.00771145, 0.00076321, -0.91468525, 0.01474646, 0.00718290, 0.00233276, 97.80700684, 297.05014038, 0.00000000, 0.00000000
1, 0.7200, 36, 0.00006263, -0.01299508, -1.00175321, -0.13868263, 0.05571095, -0.07816084, -54.89632797, 0.08398349, -63.28197479, 0.27684864, 0.85050088, -132.13435364, -0.40563688, 0.00776385, 0.00080265, -0.91400099, 0.01468052, 0.00818969, 0.00187342, 97.80700684, 297.05014038, 0.00000000, 0.00000000
1, 0.7400, 37, -0.00032769, -0.01195225, -1.00256157, -0.03817086, 0.09701055, -0.02813371, -54.69328308, 0.16916756, -63.13035583, 0.27631378, 0.85207295, -132.13464355, -0.40563452, 0.00777449, 0.00081246, -0.91400188, 0.01519330, 0.00713035, 0.00268358, 97.80700684, 297.05014038, 0.00000000, 0.00000000
1, 0.7600, 38, -0.00083500, -0.01196032, -1.00221264, 0.14502540, 0.01016056, 0.07428603, -54.11315155, 0.87902987, -63.13035583, 0.27901131, 0.85211647, -132.13316345, -0.40564618, 0.00778438, 0.00079120, -0.91399676, 0.01571124, 0.00710537, 0.00233506, 97.80700684, 297.05014038, 0.00000000, 0.00000000
1, 0.7800, 39, 0.00026796, -0.01224007, -1.00287914, 0.03369454, 0.00850588, 0.07580814, -54.31619644, -0.08638465, -63.00904846, 0.27417502, 0.87235487, -131.94071960, -0.40717995, 0.00792716, 0.00091473, -0.91331321, 0.01481545, 0.00742425, 0.00300444, 97.80700684, 297.05014038, 0.00000000, 0.00000000
1, 0.8000, 40, -0.00099063, -0.01326057, -1.00229943, -0.01565768, -0.06188709, -0.02586141, -53.99712753, -0.05798935, -63.03937912, 0.27402729, 0.87166846, -131.94096375, -0.40717801, 0.00792116, 0.00091345, -0.91331410, 0.01620301, 0.00847732, 0.00242655, 97.80700684, 297.05014038, 0.00000000, 0.00000000
1, 0.8200, 41, -0.00035959, -0.01305379, -1.00222623, 0.03867850, -0.04925959, -0.06850255, -54.78030777, 1.02100277, -62.91807175, 0.28775483, 0.84490925, -131.73640442, -0.40880805, 0.00775539, 0.00072280, -0.91258723, 0.01556211, 0.00826869, 0.00235318, 97.80700684, 297.05014038, 0.00000000, 0.00000000
1, 0.8400, 42, -0.00010024, -0.01150332, -1.00245059, -0.02161137, -0.03989354, -0.04784315, -55.04136276, -0.48390785, -63.34263611, 0.28768787, 0.84427041, -131.73724365, -0.40880144, 0.00775007, 0.00072099, -0.91259027, 0.01483752, 0.00648327, 0.00257187, 97.80700684, 297.05014038, 0.00000000, 0.00000000
1, 0.8600, 43, -0.00081618, -0.01226059, -1.00198936, -0.08245598, -0.03084543, -0.05646650, -54.05514145, 0.08398349, -63.25165939, 0.28638139, 0.84361315, -131.73805237, -0.40879509, 0.00774018, 0.00072900, -0.91259319, 0.01554603, 0.00725777, 0.00211034, 97.80700684, 297.05014038, 0.00000000, 0.00000000
1, 0.8800, 44, -0.00062636, -0.01205085, -1.00280774, 0.01814966, 0.00050269, 0.01292817, -54.37421036, 0.33953387, -63.31230545, 0.29876328, 0.81759918, -131.53906250, -0.41037950, 0.00757624, 0.00055074, -0.91188318, 0.01509444, 0.00693469, 0.00292547, 97.80700684, 297.05014038, 0.00000000, 0.00000000
1, 0.9000, 45, -0.00088754, -0.01230348, -1.00239182, 0.01899673, -0.03928777, -0.09796624, -54.89632797, 0.28274509, -63.00904846, 0.29903790, 0.81731755, -131.54058838, -0.41036743, 0.00757499, 0.00054744, -0.91188872, 0.01514793, 0.00708520, 0.00250718, 97.80700684, 297.05014038, 0.00000000, 0.00000000
1, 0.9200, 46, -0.00050383, -0.01237504, -1.00305641, 0.07237747, -0.01548576, 0.01915852, -54.63527298, 1.30494845, -63.31230545, 0.28858203, 0.85200518, -131.35948181, -0.41180721, 0.00781237, 0.00076723, -0.91123718, 0.01476623, 0.00714615, 0.00317171, 97.80700684, 297.05014038, 0.00000000, 0.00000000
1, 0.9400, 47, 0.00021495, -0.01235718, -1.00307286, -0.10303648, 0.03291221, -0.00273690, -54.63527298, 1.19136906, -63.10002518, 0.28672710, 0.85212088, -131.35986328, -0.41180432, 0.00780663, 0.00078237, -0.91123861, 0.01466577, 0.00733825, 0.00319621, 97.80700684, 297.05014038, 0.00000000, 0.00000000
1, 0.9600, 48, -0.00021770, -0.01208834, -1.00116515, 0.00898713, -0.01518321, 0.00335340, -54.43222809, 1.21976435, -63.40328217, 0.28682852, 0.85243583, -131.35939026, -0.41180798, 0.00780949, 0.00078272, -0.91123688, 0.01509719, 0.00708487, 0.00128845, 97.80700684, 297.05014038, 0.00000000, 0.00000000
1, 0.9800, 49, -0.00018611, -0.01103609, -1.00162351, -0.04180554, 0.00396765, -0.03468985, -54.57725906, 1.07779145, -63.25165939, 0.26813644, 0.87919712, -131.17556763, -0.41326931, 0.00795346, 0.00104031, -0.91057354, 0.01532621, 0.00621241, 0.00174975, 97.80700684, 297.05014038, 0.00000000, 0.00000000
1, 1.0000, 50, -0.00043529, -0.01154146, -1.00306308, 0.04915382, -0.00463734, 0.07265770, -54.66427994, 0.53829545, -62.88774109, 0.26896012, 0.87917113, -131.17442322, -0.41327828, 0.00795622, 0.00103375, -0.91056943, 0.01578172, 0.00685386, 0.00319181, 97.80700684, 297.05014038, 0.00000000, 0.00000000
1, 1.0200, 51, -0.00034508, -0.01236445, -1.00275898, 0.06095404, -0.06665917, 0.00984041, -54.22917938, 0.82224113, -63.34263611, 0.27202094, 0.88692749, -130.98466492, -0.41478509, 0.00802716, 0.00105069, -0.90988350, 0.01568876, 0.00765632, 0.00288782, 97.80700684, 297.05014038, 0.00000000, 0.00000000
1, 1.0400, 52, -0.00093007, -0.01206303, -1.00455558, -0.06090111, -0.00067054, -0.02525781, -54.25818253, 0.70866358, -62.85742569, 0.27089974, 0.88696659, -130.98489380, -0.41478339, 0.00802341, 0.00105972, -0.90988427, 0.01641041, 0.00733020, 0.00468662, 97.80700684, 297.05014038, 0.00000000, 0.00000000
1, 1.0600, 53, -0.00020881, -0.01185685, -1.00369596, -0.01048931, 0.01002981, -0.00566147, -54.05514145, 0.73705703, -63.16068268, 0.27012324, 0.88753366, -130.98527527, -0.41478041, 0.00802511, 0.00106791, -0.90988559, 0.01569161, 0.00713915, 0.00382694, 97.80700684, 297.05014038, 0.00000000, 0.00000000
1, 1.0800, 54, -0.00127805, -0.01204753, -1.00371695, -0.11208009, 0.03837675, -0.02272469, -54.34520721, 0.70866358, -63.06970978, 0.26741081, 0.89594078, -130.79458618, -0.41629368, 0.00808017, 0.00113333, -0.90919369, 0.01685630, 0.00736598, 0.00384931, 97.80700684, 297.05014038, 0.00000000, 0.00000000
1, 1.1000, 55, -0.00017199, -0.01204040, -1.00326145, -0.09184355, 0.02872286, 0.03602184, -54.51924515, 0.90742522, -63.40328217, 0.26647541, 0.89649868, -130.79357910, -0.41630173, 0.00808119, 0.00114285, -0.90919000, 0.01582026, 0.00740002, 0.00339465, 97.80700684, 297.05014038, 0.00000000, 0.00000000
1, 1.1200, 56, 0.00007895, -0.01190713, -1.00149465, 0.04651021, -0.04510485, 0.03319123, -54.14216232, 1.21976435, -63.00904846, 0.25136378, 0.93148798, -130.62174988, -0.41766411, 0.00830180, 0.00140232, -0.90856260, 0.01555657, 0.00723984, 0.00162767, 97.80700684, 297.05014038, 0.00000000, 0.00000000
1, 1.1400, 57, 0.00049843, -0.01220633, -1.00207460, 0.10632826, -0.14870961, -0.01859933, -53.79407883, 0.76545238, -62.79676819, 0.25319889, 0.92913282, -130.62202454, -0.41766188, 0.00828982, 0.00137917, -0.90856373, 0.01573757, 0.00780804, 0.00221613, 97.80700684, 297.05014038, 0.00000000, 0.00000000
1, 1.1600, 58, -0.00053480, -0.01266057, -1.00195920, -0.02749100, 0.00853418, -0.02926344, -54.69328308, 0.79384583, -62.46319580, 0.25215337, 0.92969710, -130.62263489, -0.41765705, 0.00829049, 0.00138947, -0.90856588, 0.01675987, 0.00824388, 0.00210060, 97.80700684, 297.05014038, 0.00000000, 0.00000000
1, 1.1800, 59, -0.00062844, -0.01361492, -0.99894857, -0.22020093, 0.02557175, 0.02385591, -54.57725906, 0.96421397, -62.64514542, 0.27527958, 0.89810699, -130.42131042, -0.41925254, 0.00812238, 0.00110523, -0.90783274, 0.01654995, 0.00892879, -0.00091361, 97.80700684, 297.05014038, 0.00000000, 0.00000000
1, 1.2000, 60, -0.00054472, -0.01096367, -1.00403428, -5.91204500, 1.60295522, 0.22778600, -53.91011047, 0.56669074, -63.03937912, 0.16334987, 0.92730641, -130.41697693, -0.41929337, 0.00794411, 0.00209912, -0.90781361, 0.01648458, 0.00719544, 0.00416861, 97.80700684, 297.05014038, 0.00000000, 0.00000000
1, 1.2200, 61, -0.00031021, -0.00955293, -1.00118518, -2.49894452, 0.07131270, 0.20738138, -54.08414459, -0.19996218, -62.64514542, 0.09951355, 0.96072310, -130.33792114, -0.41992265, 0.00797338, 0.00273262, -0.90752077, 0.01646981, 0.00711836, 0.00131872, 97.80700684, 297.05014038, 0.00000000, 0.00000000
1, 1.2400, 62, 0.00092370, -0.00849986, -1.00394881, -2.70617652, 0.34687406, 0.54028314, -54.46123123, -0.25675094, -62.88774109, 0.04611286, 0.96815246, -130.32600403, -0.42002052, 0.00783620, 0.00318357, -0.90747523, 0.01591148, 0.00726648, 0.00409125, 97.80700684, 297.05014038, 0.00000000, 0.00000000
1, 1.2600, 63, 0.00343358, -0.01252726, -1.00548315, -1.46105921, -0.11243477, 3.15810132, -54.08414459, 0.85063642, -62.79676819, 0.02192084, 0.96309203, -130.25415039, -0.42059112, 0.00770534, 0.00336143, -0.90721136, 0.01349612, 0.01203462, 0.00562652, 97.80700684, 297.05014038, 0.00000000, 0.00000000
1, 1.2800, 64, -0.00224951, -0.00445862, -1.00150621, 0.31370881, -0.91222090, 6.41684675, -54.25818253, 0.87902987, -62.43286514, 0.01984568, 0.96740508, -130.07832336, -0.42198277, 0.00772666, 0.00340555, -0.90656459, 0.01908895, 0.00408879, 0.00164814, 97.80700684, 297.05014038, 0.00000000, 0.00000000
1, 1.3000, 65, -0.00078316, -0.00341971, -1.00288928, 0.59352231, 0.13710253, 1.87115526, -54.31619644, 1.36173713, -63.34263611, 0.03399003, 0.96990883, -130.04312134, -0.42226014, 0.00779754, 0.00330527, -0.90643519, 0.01767885, 0.00298926, 0.00303217, 97.80700684, 297.05014038, 0.00000000, 0.00000000
1, 1.3200, 66, -0.00105332, -0.00849538, -1.00264013, 1.06417203, 0.04464319, 0.40283957, -54.20017624, 1.07779145, -63.16068268, 0.03593072, 1.02009928, -129.89428711, -0.42343524, 0.00819718, 0.00348552, -0.90588260, 0.01797582, 0.00771103, 0.00278367, 97.80700684, 297.05014038, 0.00000000, 0.00000000
1, 1.3400, 67, 0.00041358, -0.00941369, -1.00499201, -0.12287883, 0.22603969, 0.43814933, -54.69328308, 1.10618687, -63.40328217, 0.03249746, 1.02479637, -129.88494873, -0.42350909, 0.00822134, 0.00353068, -0.90584767, 0.01742792, 0.00879011, 0.00515130, 97.80700684, 297.05014038, 0.00000000, 0.00000000
1, 1.3600, 68, 0.00153116, -0.01123455, -1.00204360, -0.38780108, 0.24197952, 1.03750336, -54.02613068, 1.13458025, -62.61481476, 0.02202242, 1.02955282, -129.86126709, -0.42369679, 0.00821947, 0.00363277, -0.90575945, 0.01640360, 0.01072399, 0.00220459, 97.80700684, 297.05014038, 0.00000000, 0.00000000
1, 1.3800, 69, 0.00177022, -0.01288623, -1.00498271, -0.98401552, -0.48359358, 4.76990461, -54.49024200, 0.59508425, -62.43286514, -0.00057490, 1.04583466, -129.70213318, -0.42495537, 0.00825923, 0.00388306, -0.90516835, 0.01641506, 0.01284916, 0.00514810, 97.80700684, 297.05014038, 0.00000000, 0.00000000
1, 1.4000, 70, -0.00158682, -0.00212042, -1.00124836, 0.68071061, -0.14039923, 5.01956415, -54.43222809, 0.70866358, -62.76645279, 0.01441978, 1.04398382, -129.60850525, -0.42569378, 0.00829714, 0.00376453, -0.90482140, 0.01979872, 0.00200376, 0.00141419, 97.80700684, 297.05014038, 0.00000000, 0.00000000
1, 1.4200, 71, 0.00146338, -0.01613437, -1.00416851, 0.51307511, 0.37464419, 4.34182453, -53.88109970, -0.37032849, -62.76645279, 0.02005531, 1.07466137, -129.46583557, -0.42681843, 0.00855553, 0.00384465, -0.90428883, 0.01681896, 0.01582464, 0.00433569, 97.80700684, 297.05014038, 0.00000000, 0.00000000
1, 1.4400, 72, 0.00385845, -0.01896617, -1.00255978, -1.25666356, -0.64727050, 13.51999760, -54.02613068, 0.56669074, -62.06896210, 0.00138415, 1.06246507, -129.18682861, -0.42902076, 0.00838011, 0.00396698, -0.90324706, 0.01480713, 0.01880554, 0.00273410, 97.80700684, 297.05014038, 0.00000000, 0.00000000
1, 1.4600, 73, -0.00089398, -0.00117020, -1.00331485, -1.41596925, -1.19709194, 15.59864807, -54.22917938, 1.36173713, -62.40253448, -0.02101975, 1.03740370, -128.88214111, -0.43142334, 0.00808789, 0.00407127, -0.90210426, 0.01927221, 0.00132849, 0.00348379, 97.80700684, 297.05014038, 0.00000000, 0.00000000
1, 1.4800, 74, -0.00890908, 0.01183362, -0.99649870, -0.72418112, 0.43566558, 8.94248676, -53.09792709, 0.05558818, -62.88774109, -0.03341763, 1.07992661, -128.68766785, -0.43295327, 0.00836861, 0.00434317, -0.90136719, 0.02713981, -0.01117972, -0.00333488, 97.80700684, 297.05014038, 0.00000000, 0.00000000
1, 1.5000, 75, 0.00103439, -0.00740505, -1.00702751, 1.74394500, 2.79155421, 0.26183718, -53.62004471, 1.04939806, -63.25165939, 0.00038609, 1.14022124, -128.68238831, -0.43298998, 0.00897040, 0.00430549, -0.90134382, 0.01842436, 0.00775199, 0.00721688, 97.80700684, 297.05014038, 0.00000000, 0.00000000
1, 1.5200, 76, 0.00263713, -0.00824322, -1.00528920, 1.81156135, 1.48881686, 0.91464794, -53.21394730, 1.70247161, -63.10002518, 0.02593089, 1.20482492, -128.59313965, -0.43368733, 0.00957168, 0.00435613, -0.90100217, 0.01758837, 0.00794589, 0.00549375, 97.80700684, 297.05014038, 0.00000000, 0.00000000
1, 1.5400, 77, 0.00190820, -0.00968324, -1.00382304, 1.14723539, 0.86182636, 2.98708010, -53.76507568, 1.16297555, -63.00904846, 0.04883868, 1.22222364, -128.53134155, -0.43417048, 0.00979289, 0.00424714, -0.90076756, 0.01931176, 0.00903102, 0.00404849, 97.80700684, 297.05014038, 0.00000000, 0.00000000
1, 1.5600, 78, 0.00245535, -0.00912575, -1.00238252, 0.39805835, -0.02513227, 4.04748392, -53.44599915, 1.36173713, -63.13035583, 0.05819269, 1.22144163, -128.45091248, -0.43480176, 0.00981926, 0.00417754, -0.90046299, 0.01889723, 0.00818491, 0.00261096, 97.80700684, 297.05014038, 0.00000000, 0.00000000
1, 1.5800, 79, 0.00141877, -0.00825442, -1.00252962, 0.46386290, -0.13356337, 2.64372587, -54.25818253, 1.98641729, -63.00904846, 0.05314455, 1.26298475, -128.30606079, -0.43593827, 0.01012101, 0.00438764, -0.89990902, 0.02032029, 0.00729771, 0.00276656, 97.80700684, 297.05014038, 0.00000000, 0.00000000
1, 1.6000, 80, 0.00159555, -0.00829870, -1.00211072, 0.12140083, -0.06894176, 1.59086275, -53.41699600, 1.81604910, -63.16068268, 0.05573662, 1.26147079, -128.27590942, -0.43617475, 0.01011783, 0.00436418, -0.89979452, 0.02042884, 0.00734176, 0.00235371, 97.80700684, 297.05014038, 0.00000000, 0.00000000
1, 1.6200, 81, 0.00222671, -0.00855538, -1.00227058, 0.12803926, -0.36736089, 0.64514434, -53.50401306, 1.81604910, -63.28197479, 0.03886599, 1.30616784, -128.12110901, -0.43738946, 0.01039827, 0.00468084, -0.89919990, 0.01973456, 0.00755585, 0.00251227, 97.80700684, 297.05014038, 0.00000000, 0.00000000
1, 1.6400, 82, 0.00140017, -0.00819556, -1.00282598, 0.30201364, -0.44437727, 0.33177769, -53.38799286, 1.39013064, -63.00904846, 0.04499951, 1.29759824, -128.11460876, -0.43744025, 0.01035418, 0.00460059, -0.89917612, 0.02131623, 0.00746980, 0.00308435, 97.80700684, 297.05014038, 0.00000000, 0.00000000
1, 1.6600, 83, 0.00124584, -0.00928214, -1.00238574, 0.32161260, -0.39432472, 0.30406073, -53.79407883, 1.39013064, -62.46319580, 0.05183342, 1.28956079, -128.10809326, -0.43749118, 0.01031694, 0.00451687, -0.89915222, 0.02134352, 0.00845594, 0.00264130, 97.80700684, 297.05014038, 0.00000000, 0.00000000
1, 1.6800, 84, 0.00016480, -0.01021525, -1.00107086, 0.53776956, 0.10649936, 0.05635576, -52.86586761, 1.10618687, -63.16068268, 0.04737477, 1.32741821, -127.94417572, -0.43877554, 0.01059024, 0.00471154, -0.89852190, 0.02267485, 0.00936475, 0.00133213, 97.80700684, 297.05014038, 0.00000000, 0.00000000
1, 1.7000, 85, 0.00126167, -0.00964724, -1.00312436, 0.75493956, 0.50781107, -0.02741550, -53.56203079, 1.39013064, -62.79676819, 0.06195651, 1.33692122, -127.94509888, -0.43876645, 0.01072062, 0.00463351, -0.89852530, 0.02201128, 0.00869267, 0.00339564, 97.80700684, 297.05014038, 0.00000000, 0.00000000
1, 1.7200, 86, 0.00201762, -0.00926707, -1.00228000, 0.47873229, 0.01606114, -0.10557961, -53.70706177, 1.21976435, -63.06970978, 0.06080461, 1.36611485, -127.77567291, -0.44009316, 0.01093808, 0.00477050, -0.89787281, 0.02132604, 0.00809206, 0.00255311, 97.80700684, 297.05014038, 0.00000000, 0.00000000
1, 1.7400, 87, 0.00133456, -0.01040320, -1.00271463, 0.16598608, -0.05825102, -0.10451218, -53.12693024, 1.10618687, -63.16068268, 0.06470701, 1.36518514, -127.77762604, -0.44007751, 0.01094586, 0.00473617, -0.89788061, 0.02249409, 0.00931185, 0.00299917, 97.80700684, 297.05014038, 0.00000000, 0.00000000
1, 1.7600, 88, 0.00226404, -0.01091860, -1.00294745, 0.01773393, -0.30925459, -0.10403029, -53.56203079, 1.61728752, -63.06970978, 0.06550039, 1.35863650, -127.77963257, -0.44006202, 0.01089768, 0.00470461, -0.89788890, 0.02150433, 0.00977408, 0.00323061, 97.80700684, 297.05014038, 0.00000000, 0.00000000
1, 1.7800, 89, 0.00121411, -0.00964807, -1.00156927, 0.22979459, -0.27624771, -0.08572736, -53.50401306, 1.61728752, -63.34263611, 0.05630041, 1.39732134, -127.62593842, -0.44126487, 0.01115885, 0.00494023, -0.89729398, 0.02286076, 0.00860796, 0.00185971, 97.80700684, 297.05014038, 0.00000000, 0.00000000
1, 1.8000, 90, 0.00137081, -0.00957183, -1.00186515, 0.19299892, 0.17104526, -0.07451239, -53.79407883, 1.53210342, -63.00904846, 0.06050851, 1.40109694, -127.62699127, -0.44125602, 0.01120466, 0.00492172, -0.89729786, 0.02304459, 0.00854855, 0.00216379, 97.80700684, 297.05014038, 0.00000000, 0.00000000
1, 1.8200, 91, 0.00173944, -0.01002028, -1.00199282, 0.14325497, 0.11059401, -0.07658234, -53.67805862, 1.47531474, -63.49425507, 0.07955756, 1.37952006, -127.44705963, -0.44266370, 0.01110168, 0.00470690, -0.89660668, 0.02273792, 0.00892597, 0.00229306, 97.80700684, 297.05014038, 0.00000000, 0.00000000
1, 1.8400, 92, 0.00171965, -0.01067287, -1.00306714, -0.17246601, 0.22532097, 0.03237015, -53.18494415, 1.64568281, -63.25165939, 0.07600838, 1.38352585, -127.44625092, -0.44267011, 0.01111928, 0.00475023, -0.89660305, 0.02239030, 0.00930403, 0.00335882, 97.80700684, 297.05014038, 0.00000000, 0.00000000
1, 1.8600, 93, 0.00114063, -0.00979610, -1.00268948, -0.29789865, -0.21443388, 0.08331306, -53.30096817, -0.37032849, -62.82709885, 0.06974658, 1.37982738, -127.44491577, -0.44268143, 0.01106610, 0.00478506, -0.89659792, 0.02294890, 0.00851907, 0.00298053, 97.80700684, 297.05014038, 0.00000000, 0.00000000
1, 1.8800, 94, 0.00156144, -0.00998458, -1.00279629, -0.01751896, 0.00867973, 0.03008176, -53.56203079, 1.84444439, -63.19099808, 0.06637714, 1.38601410, -127.27537537, -0.44400743, 0.01109432, 0.00485175, -0.89594132, 0.02258706, 0.00880418, 0.00308873, 97.80700684, 297.05014038, 0.00000000, 0.00000000
1, 1.9000, 95, 0.00172088, -0.01032154, -1.00248599, 0.09609707, -0.16877276, 0.13924129, -53.21394730, 0.82224113, -63.28197479, 0.06848647, 1.38156700, -127.27243805, -0.44403037, 0.01106760, 0.00481831, -0.89593041, 0.02244898, 0.00915392, 0.00277877, 97.80700684, 297.05014038, 0.00000000, 0.00000000
1, 1.9200, 96, 0.00131924, -0.00985316, -1.00171161, -0.36101994, -0.05614202, 0.13116392, -53.01090240, 1.27655315, -63.31230545, 0.04636127, 1.42610097, -127.12345886, -0.44519472, 0.01132333, 0.00517859, -0.89534718, 0.02275948, 0.00871183, 0.00200209, 97.80700684, 297.05014038, 0.00000000, 0.00000000
1, 1.9400, 97, 0.00201780, -0.00973094, -1.00249565, -0.52524626, 0.11060361, 0.08171953, -53.32997894, 1.98641729, -62.82709885, 0.03613546, 1.42791677, -127.12161255, -0.44521004, 0.01129770, 0.00526572, -0.89533949, 0.02289814, 0.00901663, 0.00280630, 97.80700684, 297.05014038, 0.00000000, 0.00000000
1, 1.9600, 98, 0.00210589, -0.01076200, -1.00296307, -0.36014736, -0.18552266, 0.52173710, -53.53302383, 1.67407632, -63.19099808, 0.02902918, 1.42454565, -127.11034393, -0.44529894, 0.01124323, 0.00530925, -0.89529562, 0.02277179, 0.01019619, 0.00327272, 97.80700684, 297.05014038, 0.00000000, 0.00000000
1, 1.9800, 99, 0.00307161, -0.01068586, -1.00248921, -0.21223655, -0.01416678, 1.11240828, -53.56203079, 0.22595632, -62.91807175, 0.01015571, 1.47725201, -126.95397186, -0.44651943, 0.01157394, 0.00567732, -0.89468104, 0.02232439, 0.01037351, 0.00281198, 97.80700684, 297.05014038, 0.00000000, 0.00000000
1, 2.0000, 100, 0.00158199, -0.00974857, -1.00172746, -0.19203572, -0.04373096, 1.29911542, -53.62004471, 0.50990200, -63.16068268, 0.00846921, 1.47746921, -126.92831421, -0.44671991, 0.01156779, 0.00569393, -0.89458090, 0.02419541, 0.00961190, 0.00205971, 97.80700684, 297.05014038, 0.00000000, 0.00000000
1, 2.0200, 101, -0.00024522, -0.00787221, -1.00179255, 1.37897396, 1.01612735, 0.77152771, -53.38799286, 1.70247161, -63.00904846, 0.02595310, 1.53925097, -126.84086609, -0.44739753, 0.01211383, 0.00580753, -0.89423442, 0.02617885, 0.00751657, 0.00212903, 97.80700684, 297.05014038, 0.00000000, 0.00000000
1, 2.0400, 102, -0.00087951, -0.00862184, -1.00318336, 0.67436028, 2.09040785, 1.12852836, -53.56203079, 1.95802200, -62.76645279, 0.03952879, 1.58203089, -126.81655121, -0.44758344, 0.01249943, 0.00587127, -0.89413559, 0.02809114, 0.00804562, 0.00355379, 97.80700684, 297.05014038, 0.00000000, 0.00000000
1, 2.0600, 103, -0.01627909, 0.01077991, -1.00438309, 0.12490268, -0.68445259, 1.94049823, -53.79407883, 1.24815965, -62.91807175, 0.04280240, 1.56908715, -126.78302765, -0.44784522, 0.01240952, 0.00579880, -0.89400613, 0.04382526, -0.01150300, 0.00476285, 97.80700684, 297.05014038, 0.00000000, 0.00000000
1, 2.0800, 104, 0.02311124, -0.03263279, -0.99929029, -0.61837196, 0.40919545, 1.45628893, -53.35898209, 2.24196768, -63.40328217, 0.02424616, 1.62634146, -126.66721344, -0.44874740, 0.01277744, 0.00618025, -0.89354604, 0.00480131, 0.03202578, -0.00031972, 97.80700684, 297.05014038, 0.00000000, 0.00000000
1, 2.1000, 105, -0.00009065, -0.01683054, -1.00258899, -0.88909006, 0.02694422, 2.60246325, -52.74984741, 1.02100277, -62.55417252, 0.00232934, 1.62695217, -126.60806274, -0.44921094, 0.01269309, 0.00636009, -0.89331299, 0.02846823, 0.01651688, 0.00299164, 97.80700684, 297.05014038, 0.00000000, 0.00000000
1, 2.1200, 106, -0.00100189, -0.02387450, -1.01194155, -4.06105804, -5.50414705, 11.35516834, -52.66282654, 2.12838817, -62.70579147, -0.07544756, 1.53172505, -126.35761261, -0.45117545, 0.01163139, 0.00661855, -0.89233494, 0.02863664, 0.02458175, 0.01232391, 97.80700684, 297.05014038, 0.00000000, 0.00000000
1, 2.1400, 107, -0.00822489, -0.03416155, -1.01770759, -7.68024826, -4.10504198, 13.58316040, -52.92388153, 3.15059161, -62.43286514, -0.22971199, 1.44169652, -126.06912231, -0.45343897, 0.01030410, 0.00749134, -0.89119631, 0.03425192, 0.03657400, 0.01804967, 97.80700684, 297.05014038, 0.00000000, 0.00000000
1, 2.1600, 108, -0.00820886, -0.00013595, -1.00379848, -11.45005226, -11.68517113, 22.15094185, -52.40176392, 2.63949084, -61.88699722, -0.45487228, 1.21290052, -125.62738800, -0.45689392, 0.00760147, 0.00836657, -0.88944936, 0.03141388, 0.00598121, 0.00408582, 97.80700684, 297.05014038, 0.00000000, 0.00000000
1, 2.1800, 109, 0.00785907, 0.02259336, -1.00450349, -16.89406013, -8.96937847, 17.94262123, -51.41554642, 4.14439964, -61.40178680, -0.80144817, 1.05174720, -125.27261353, -0.45966384, 0.00493641, 0.01042956, -0.88801807, 0.01172991, -0.01189270, 0.00475400, 97.80700684, 297.05014038, 0.00000000, 0.00000000
1, 2.2000, 110, -0.00383268, 0.01717355, -1.00675201, -23.50787926, -6.10148668, 7.05649614, -51.15448380, 4.25797892, -61.79602051, -1.27030694, 0.93180037, -125.13381958, -0.46074924, 0.00210961, 0.01358442, -0.88742393, 0.02117276, 0.00084636, 0.00706702, 97.80700684, 297.05014038, 0.00000000, 0.00000000
1, 2.2200, 111, -0.01569437, 0.03123719, -1.00682843, -25.04063797, -5.39748335, 0.67699254, -50.45832825, 4.96784115, -61.46244812, -1.78707957, 0.83560967, -125.13079071, -0.46076897, -0.00071366, 0.01719968, -0.88735318, 0.03100507, -0.00481756, 0.00729718, 97.80700684, 297.05014038, 0.00000000, 0.00000000
1, 2.2400, 112, 0.02345105, 0.02832947, -1.02669299, -35.55471420, -0.46712348, -24.83934021, -50.40031433, 5.90486050, -61.15919113, -2.51333380, 0.79537308, -125.62549591, -0.45691481, -0.00384758, 0.02267826, -0.88921303, -0.00905798, 0.00881526, 0.02749190, 97.80700684, 297.05014038, 0.00000000, 0.00000000
1, 2.2600, 113, -0.03744635, 0.04751406, -0.98986703, -28.99212074, -0.10146295, -11.96953964, -49.79117966, 5.96164942, -61.55342484, -3.09405804, 0.78297359, -125.86380768, -0.45503724, -0.00620284, 0.02714784, -0.89003688, 0.05100236, 0.00164290, -0.00882910, 97.80700684, 297.05014038, 0.00000000, 0.00000000
1, 2.2800, 114, 0.00718546, 0.04221427, -1.04404068, -22.42895508, 2.31485558, -11.04042721, -49.76216888, 6.55793619, -62.28122711, -3.52644491, 0.83233780, -126.06726074, -0.45344028, -0.00748181, 0.03071518, -0.89072585, 0.00676565, 0.01607829, 0.04584048, 97.80700684, 297.05014038, 0.00000000, 0.00000000
1, 2.3000, 115, -0.01509776, 0.05210646, -0.99995476, -8.59076500, 6.41154146, -6.28197384, -49.21104813, 6.95545912, -62.73612213, -3.68709493, 0.95402259, -126.19124603, -0.45249209, -0.00713634, 0.03245267, -0.89114916, 0.03065354, 0.01112664, 0.00207761, 97.80700684, 297.05014038, 0.00000000, 0.00000000
1, 2.3200, 116, -0.02064370, 0.08294133, -0.99993163, 0.73809409, 7.92332888, -1.05240953, -48.25382996, 6.55793619, -62.40253448, -3.68118882, 1.13269329, -126.18598175, -0.45257166, -0.00572468, 0.03311121, -0.89109474, 0.03864609, -0.01867135, 0.00216178, 97.80700684, 297.05014038, 0.00000000, 0.00000000
1, 2.3400, 117, -0.00340779, 0.03880802, -1.00373042, 4.78364611, 9.11786366, 1.63111365, -48.13780212, 6.72830248, -61.79602051, -3.57992244, 1.31666446, -126.16104126, -0.45280740, -0.00390081, 0.03304854, -0.89098710, 0.02474132, 0.02468668, 0.00597671, 97.80700684, 297.05014038, 0.00000000, 0.00000000
1, 2.3600, 118, -0.00528135, 0.05083417, -0.99055988, 5.70174885, 9.57941151, 0.22154365, -46.83250427, 7.35298252, -62.97871780, -3.46495748, 1.50639486, -126.17001343, -0.45277670, -0.00196815, 0.03290344, -0.89101446, 0.02991376, 0.01060227, -0.00724671, 97.80700684, 297.05014038, 0.00000000, 0.00000000
1, 2.3800, 119, -0.00728781, 0.03604202, -0.98529989, 4.86552572, 6.97941065, 1.36291909, -46.25238037, 7.32458687, -63.73686600, -3.37259364, 1.66726756, -126.10676575, -0.45329800, -0.00036992, 0.03281970, -0.89075464, 0.03507499, 0.02351720, -0.01253769, 97.80700684, 297.05014038, 0.00000000, 0.00000000
1, 2.4000, 120, 0.01818275, 0.02121153, -1.00094581, 7.97844791, 6.20932531, 7.71669483, -45.99131775, 5.76288795, -63.61556244, -3.20294166, 1.80150330, -125.95866394, -0.45447007, 0.00130373, 0.03203275, -0.89018500, 0.01204734, 0.03627617, 0.00305779, 97.80700684, 297.05014038, 0.00000000, 0.00000000
1, 2.4200, 121, 0.01976866, 0.02969204, -0.99898309, 11.13779926, 7.66949415, 7.04463291, -45.23714828, 7.63692617, -63.97946548, -2.98269725, 1.97566509, -125.81046295, -0.45564154, 0.00349070, 0.03101588, -0.88961607, 0.01304888, 0.02418894, 0.00097579, 97.80700684, 297.05014038, 0.00000000, 0.00000000
1, 2.4400, 122, 0.01148446, 0.04237423, -0.98341674, 7.04515266, 9.91769505, 3.49924159, -44.62801361, 6.58632946, -64.43435669, -2.84418893, 2.18544436, -125.75670624, -0.45607945, 0.00565637, 0.03077590, -0.88938874, 0.02450891, 0.00827025, -0.01465059, 97.80700684, 297.05014038, 0.00000000, 0.00000000
1, 2.4600, 123, 0.02791091, 0.03362957, -1.01622331, -0.75721872, 15.52416801, 2.88801765, -43.55476761, 5.56412601, -65.22282410, -2.86378026, 2.51079178, -125.71096039, -0.45647207, 0.00809187, 0.03222355, -0.88911724, 0.01272835, 0.01585720, 0.01827667, 97.80700684, 297.05014038, 0.00000000, 0.00000000
1, 2.4800, 124, 0.03869264, 0.03531235, -1.04266369, -0.54224402, 20.67245865, 4.85692072, -42.42351532, 5.56412601, -65.85966492, -2.86543322, 2.94024515, -125.62422943, -0.45718765, 0.01139353, 0.03395185, -0.88864899, 0.00892618, 0.01481566, 0.04505856, 97.80700684, 297.05014038, 0.00000000, 0.00000000
1, 2.5000, 125, 0.03181399, 0.03625849, -1.04384685, 13.63093090, 18.32540131, 5.63584614, -42.36550140, 5.13820934, -66.61779785, -2.57285142, 3.30746293, -125.52516174, -0.45794919, 0.01538178, 0.03315764, -0.88822669, 0.02280983, 0.01162459, 0.04649087, 97.80700684, 297.05014038, 0.00000000, 0.00000000
1, 2.5200, 126, 0.03490511, 0.02921866, -1.01386118, 20.75818443, 15.83377647, 7.42131948, -39.78392029, 1.27655315, -67.80049896, -2.15780807, 3.63292432, -125.38167572, -0.45901051, 0.01952560, 0.03126243, -0.88766593, 0.02566656, 0.01190064, 0.01654739, 97.80700684, 297.05014038, 0.00000000, 0.00000000
1, 2.5400, 127, 0.03121022, 0.02153528, -0.99526650, 17.57177544, 12.90035152, 7.10395145, -39.20378876, 2.27036119, -67.89147186, -1.79376352, 3.89412355, -125.24417114, -0.46000838, 0.02297287, 0.02951389, -0.88712662, 0.03445549, 0.01288251, -0.00197961, 97.80700684, 297.05014038, 0.00000000, 0.00000000
1, 2.5600, 128, 0.03810558, 0.02495339, -1.00802386, 21.27520180, 13.26378632, 9.67480087, -37.28935623, 1.27655315, -68.49798584, -1.36155963, 4.17089748, -125.05807495, -0.46134496, 0.02680713, 0.02732033, -0.88639486, 0.03206160, 0.00243939, 0.01086742, 97.80700684, 297.05014038, 0.00000000, 0.00000000
1, 2.5800, 129, 0.03879737, 0.00907599, -0.99856383, 15.48492908, 14.10330200, 8.93410873, -36.27412415, 1.13458025, -68.74060059, -1.05946088, 4.46107864, -124.88217163, -0.46260956, 0.03022860, 0.02619635, -0.88565940, 0.03659757, 0.01164684, 0.00162722, 97.80700684, 297.05014038, 0.00000000, 0.00000000
1, 2.6000, 130, 0.03617620, 0.02571206, -1.00780642, 1.02437317, 10.46514130, 3.50184155, -34.62074661, 0.45311138, -69.55939484, -1.04942048, 4.66895628, -124.82044983, -0.46306506, 0.03186181, 0.02697392, -0.88534063, 0.04352186, -0.00786537, 0.01114755, 97.80700684, 297.05014038, 0.00000000, 0.00000000
1, 2.6200, 131, 0.04459720, 0.02880531, -1.02608824, -5.51618528, 11.44280052, 2.45113444, -32.27122116, 0.76545238, -70.46916199, -1.16342664, 4.91878366, -124.75951385, -0.46354455, 0.03331662, 0.02888040, -0.88497597, 0.03871230, -0.00960251, 0.02975025, 97.80700684, 297.05014038, 0.00000000, 0.00000000
1, 2.6400, 132, 0.06142571, 0.00644294, -1.01309514, -3.76337790, 16.36507797, 6.04312372, -31.66207886, 0.28274509, -70.25688171, -1.22305584, 5.25150347, -124.63965607, -0.46445471, 0.03561389, 0.03072166, -0.88434702, 0.02709961, 0.01444265, 0.01724121, 97.80700684, 297.05014038, 0.00000000, 0.00000000
1, 2.6600, 133, 0.07697053, 0.00246452, -1.00680435, 0.07161895, 18.11378860, 8.79484653, -29.34156036, 0.85063642, -70.34786224, -1.19593382, 5.61813164, -124.46548462, -0.46574882, 0.03850582, 0.03205401, -0.88349760, 0.01771637, 0.01873561, 0.01152434, 97.80700684, 297.05014038, 0.00000000, 0.00000000
1, 2.6800, 134, 0.08182415, -0.00776204, -1.00829351, 9.46540833, 16.31265640, 11.06534958, -27.86222649, 1.50371003, -70.83306885, -0.98147696, 5.95526886, -124.23757935, -0.46738511, 0.04191458, 0.03185166, -0.88248503, 0.01917035, 0.02698071, 0.01359381, 97.80700684, 297.05014038, 0.00000000, 0.00000000
1, 2.7000, 135, 0.08468863, -0.01423283, -1.01003361, 4.69095469, 15.78383541, 12.68580151, -25.07759666, 0.28274509, -71.25762939, -0.88120180, 6.27195597, -123.99105072, -0.46919531, 0.04469362, 0.03246514, -0.88136512, 0.02187770, 0.02986668, 0.01585206, 97.80700684, 297.05014038, 0.00000000, 0.00000000
1, 2.7200, 136, 0.08682889, 0.00220831, -1.04337060, -8.17031765, 15.12504387, 10.49057770, -24.06236458, -0.31353971, -71.71250916, -1.03090703, 6.59187698, -123.77857208, -0.47083494, 0.04647739, 0.03501030, -0.88030028, 0.02502271, 0.01413707, 0.04978115, 97.80700684, 297.05014038, 0.00000000, 0.00000000
1, 2.7400, 137, 0.09213094, 0.01436467, -1.04495645, -5.18748379, 20.06569862, 11.91450024, -20.49456024, -0.51230133, -71.56088257, -1.08163857, 7.00246286, -123.54472351, -0.47258019, 0.04934879, 0.03718425, -0.87911892, 0.02603851, 0.00447688, 0.05214341, 97.80700684, 297.05014038, 0.00000000, 0.00000000
1, 2.7600, 138, 0.09411085, 0.00619513, -0.99062759, 5.81127882, 21.10494232, 11.90359497, -16.81072807, 0.42471793, -71.13632202, -0.94323325, 7.42639303, -123.31749725, -0.47417894, 0.05309821, 0.03797232, -0.87800521, 0.03150180, 0.01118399, -0.00129763, 97.80700684, 297.05014038, 0.00000000, 0.00000000
1, 2.7800, 139, 0.09151854, 0.01876864, -0.97710127, -1.41866577, 19.34568787, 6.69198322, -14.60622978, 0.36792916, -70.92404175, -0.97181696, 7.82351971, -123.18602753, -0.47511533, 0.05597844, 0.03989535, -0.87723446, 0.04122863, -0.00247985, -0.01391322, 97.80700684, 297.05014038, 0.00000000, 0.00000000
1, 2.8000, 140, 0.09898076, 0.00834445, -0.97448391, -6.17149973, 16.42884445, 5.23797512, -11.53153324, 0.42471793, -71.34860229, -1.07588196, 8.14850235, -123.08602142, -0.47586060, 0.05799949, 0.04208683, -0.87659663, 0.04006677, 0.00940581, -0.01564162, 97.80700684, 297.05014038, 0.00000000, 0.00000000
1, 2.8200, 141, 0.10782693, 0.01634021, -0.98316145, 0.45283431, 14.71602440, 5.33165550, -10.13921833, 0.42471793, -70.71176147, -1.04744673, 8.46119213, -122.97989655, -0.47658542, 0.06047105, 0.04322052, -0.87598038, 0.03638688, 0.00227599, -0.00620909, 97.80700684, 297.05014038, 0.00000000, 0.00000000
1, 2.8400, 142, 0.10941878, 0.02358865, -0.95844585, 3.64373660, 16.86337090, 4.30415964, -6.31035423, 0.76545238, -69.31678009, -0.97287828, 8.79450798, -122.90388489, -0.47704396, 0.06330150, 0.04407524, -0.87548810, 0.04068282, -0.00640267, -0.03007419, 97.80700684, 297.05014038, 0.00000000, 0.00000000
1, 2.8600, 143, 0.12289124, -0.00471315, -0.97275686, 1.87710023, 10.62718010, 1.61347675, -6.02028799, 0.39632261, -68.71026611, -0.91536188, 9.00604343, -122.86788940, -0.47723150, 0.06514411, 0.04453476, -0.87522745, 0.03194099, 0.02133377, -0.01504364, 97.80700684, 297.05014038, 0.00000000, 0.00000000
1, 2.8800, 144, 0.13411999, -0.01469311, -0.99789619, 11.94832802, 11.99079323, 6.32987833, -3.90281200, 0.39632261, -68.58895874, -0.64868975, 9.26147461, -122.73741150, -0.47800100, 0.06815682, 0.04363708, -0.87462306, 0.02455765, 0.02848268, 0.01066339, 97.80700684, 297.05014038, 0.00000000, 0.00000000
1, 2.9000, 145, 0.13578036, -0.01969379, -1.00243199, 21.62708664, 16.90130234, 14.11004162, -0.88613051, -0.19996218, -68.95288086, -0.16268349, 9.60933971, -122.44384766, -0.47983074, 0.07273289, 0.04156309, -0.87335271, 0.02791471, 0.02693756, 0.01595109, 97.80700684, 297.05014038, 0.00000000, 0.00000000
1, 2.9200, 146, 0.13202275, 0.01096402, -0.98629820, 24.24351883, 29.68844604, 20.00483322, 0.36115158, -0.34193504, -68.16441345, 0.37741962, 10.21632004, -122.04720306, -0.48226646, 0.07947933, 0.04026342, -0.87148213, 0.03933592, -0.01287734, 0.00109823, 97.80700684, 297.05014038, 0.00000000, 0.00000000
1, 2.9400, 147, 0.13845715, -0.01431118, -0.99026811, 14.22479916, 27.69887161, 10.02446365, 2.65266800, -2.04560637, -67.37595367, 0.69151479, 10.75726986, -121.83911133, -0.48339427, 0.08483898, 0.04030826, -0.87034917, 0.04378958, 0.00488918, 0.00706415, 97.80700684, 297.05014038, 0.00000000, 0.00000000
1, 2.9600, 148, 0.15513964, -0.02507398, -0.99935305, 7.41557932, 19.73560143, 9.68607330, 3.63889146, -2.78386402, -66.52682495, 0.88295949, 11.14457703, -121.63389587, -0.48463005, 0.08851285, 0.04065011, -0.86927950, 0.03497304, 0.01154938, 0.01768564, 97.80700684, 297.05014038, 0.00000000, 0.00000000
1, 2.9800, 149, 0.15130153, -0.02506675, -0.96096647, 10.66816330, 17.89300728, 10.86311054, 6.24948120, -2.32955098, -65.76869202, 1.13467479, 11.50073051, -121.40896606, -0.48596323, 0.09219664, 0.04043224, -0.86816168, 0.04510674, 0.00782953, -0.01940230, 97.80700684, 297.05014038, 0.00000000, 0.00000000
1, 3.0000, 150, 0.15259214, -0.01794829, -0.94271827, 9.08676529, 14.03804111, 9.52855301, 6.74259520, -1.36413741, -65.04087067, 1.35439634, 11.77295494, -121.21083069, -0.48714346, 0.09511869, 0.04009088, -0.86720037, 0.04924813, -0.00339957, -0.03646639, 97.80700684, 297.05014038, 0.00000000, 0.00000000
1, 3.0200, 151, 0.17853589, -0.03841050, -0.97251999, 7.46876717, 13.35719872, 8.71742249, 8.07689571, -1.42092621, -63.49425507, 1.54148555, 12.05027294, -121.02649689, -0.48823020, 0.09794492, 0.04001683, -0.86627758, 0.02768142, 0.01369368, -0.00567302, 97.80700684, 297.05014038, 0.00000000, 0.00000000
1, 3.0400, 152, 0.17437904, -0.02988266, -0.97342837, 10.30279064, 14.96182632, 7.77910423, 9.81728745, -2.47152400, -63.00904846, 1.77870274, 12.33681107, -120.86369324, -0.48909217, 0.10106127, 0.03959436, -0.86545241, 0.03702372, 0.00150664, -0.00355731, 97.80700684, 297.05014038, 0.00000000, 0.00000000
1, 3.0600, 153, 0.16403478, -0.01971708, -0.94576949, 4.44593382, 8.42609501, 3.00192094, 10.57145786, -2.10239506, -62.55417252, 1.87073946, 12.49193287, -120.80159760, -0.48938844, 0.10260176, 0.03962091, -0.86510235, 0.05122558, -0.01168755, -0.03028177, 97.80700684, 297.05014038, 0.00000000, 0.00000000
1, 3.0800, 154, 0.16925210, -0.05248740, -0.94012129, -2.92633104, 1.48943400, 3.35336423, 10.36841202, -1.70487189, -62.94840240, 1.81437337, 12.54603577, -120.73477936, -0.48991120, 0.10274516, 0.04033884, -0.86475623, 0.04758938, 0.02104613, -0.03557899, 97.80700684, 297.05014038, 0.00000000, 0.00000000
1, 3.1000, 155, 0.19861357, -0.03737257, -0.98207903, 2.55007553, 13.65259647, 2.59572268, 11.20960236, -1.81844938, -62.25091553, 1.90506208, 12.84698963, -120.66815948, -0.49015108, 0.10537515, 0.04101034, -0.86427212, 0.02018484, 0.00632824, 0.00680407, 97.80700684, 297.05014038, 0.00000000, 0.00000000
1, 3.1200, 156, 0.20573413, -0.02787402, -1.02460372, 15.45743656, 27.71751404, 2.77069163, 12.05079269, -2.72707415, -62.31155777, 2.22154474, 13.41532516, -120.59483337, -0.49004719, 0.11097721, 0.04114196, -0.86362326, 0.02118200, -0.00727901, 0.05132820, 97.80700684, 297.05014038, 0.00000000, 0.00000000
1, 3.1400, 157, 0.21538132, -0.03980844, -1.03033864, 18.80477715, 33.21109009, 1.00283742, 13.73317242, -2.32955098, -61.49276352, 2.63195038, 14.06559086, -120.54624176, -0.48956400, 0.11759887, 0.04090293, -0.86303216, 0.02234345, -0.00075298, 0.05985932, 97.80700684, 297.05014038, 0.00000000, 0.00000000
1, 3.1600, 158, 0.22925438, -0.06362309, -0.98877966, 24.83804131, 26.51358795, -1.18659937, 13.79118443, -2.44312954, -61.28048325, 3.10556912, 14.59368229, -120.55510712, -0.48861453, 0.12358591, 0.03960607, -0.86279416, 0.01831395, 0.01458801, 0.02115578, 97.80700684, 297.05014038, 0.00000000, 0.00000000
1, 3.1800, 159, 0.21831845, -0.05736979, -0.98366076, 14.04176521, 19.90443802, -5.74754715, 15.53157902, -2.84065270, -60.15844727, 3.35089850, 14.99418831, -120.65225983, -0.48730645, 0.12766731, 0.03937971, -0.86295015, 0.03736255, 0.00280627, 0.01844266, 97.80700684, 297.05014038, 0.00000000, 0.00000000
1, 3.2000, 160, 0.22723609, -0.08851735, -0.97681713, 2.22032261, 13.71763420, -3.53307152, 16.19872856, -2.38634062, -59.85519028, 3.38034511, 15.27224636, -120.69734192, -0.48671442, 0.12989277, 0.04030536, -0.86290932, 0.03389391, 0.03176008, 0.01318415, 97.80700684, 297.05014038, 0.00000000, 0.00000000
1, 3.2200, 161, 0.23903258, -0.07690236, -0.98733234, 2.22510505, 15.16047668, 2.48147559, 17.44601059, -2.58510232, -58.73313522, 3.43808651, 15.58907890, -120.63397980, -0.48687068, 0.13248965, 0.04130830, -0.86237872, 0.02684779, 0.01958684, 0.02503260, 97.80700684, 297.05014038, 0.00000000, 0.00000000
1, 3.2400, 162, 0.24939923, -0.07660855, -0.98036313, 3.83759165, 16.65741158, 0.83204144, 18.34521484, -2.81225824, -58.33890533, 3.52064133, 15.91774082, -120.60311127, -0.48673707, 0.13529013, 0.04214020, -0.86197901, 0.02219708, 0.01815597, 0.01972973, 97.80700684, 297.05014038, 0.00000000, 0.00000000
1, 3.2600, 163, 0.24848557, -0.07829998, -0.96030813, -0.04301532, 17.69466209, -3.66439033, 19.41845512, -3.23817587, -57.00457001, 3.50127912, 16.28678513, -120.65837860, -0.48603630, 0.13799083, 0.04381037, -0.86186308, 0.02860945, 0.01931346, 0.00127923, 97.80700684, 297.05014038, 0.00000000, 0.00000000
1, 3.2800, 164, 0.24765474, -0.06052904, -0.96829361, -0.98242235, 22.82596588, -5.48652220, 20.98481178, -2.15918374, -55.88251877, 3.44480968, 16.75974846, -120.75523376, -0.48497581, 0.14132890, 0.04615211, -0.86179727, 0.03669207, 0.00236622, 0.01134034, 97.80700684, 297.05014038, 0.00000000, 0.00000000
1, 3.3000, 165, 0.25475720, -0.06493098, -0.95417130, -1.33361554, 22.01466560, -6.13348961, 21.65196228, -2.21597362, -54.85145950, 3.38847756, 17.20664978, -120.85347748, -0.48392299, 0.14447519, 0.04837243, -0.86174566, 0.03740848, 0.00799692, -0.00049829, 97.80700684, 297.05014038, 0.00000000, 0.00000000
1, 3.3200, 166, 0.27229479, -0.06658205, -0.96460629, -4.18656635, 27.75443459, -7.25574207, 23.24732208, -1.98881662, -53.72940445, 3.27025771, 17.77745056, -120.97054291, -0.48269594, 0.14829810, 0.05155756, -0.86159980, 0.02797568, 0.01113962, 0.01236843, 97.80700684, 297.05014038, 0.00000000, 0.00000000
1, 3.3400, 167, 0.28480065, -0.07729169, -0.95857990, -2.56498289, 27.72861671, -3.84018970, 23.74043274, -1.76166058, -53.75973511, 3.20360041, 18.34041405, -121.01626587, -0.48194081, 0.15224902, 0.05440611, -0.86115807, 0.02506215, 0.02359553, 0.00931931, 97.80700684, 297.05014038, 0.00000000, 0.00000000
1, 3.3600, 168, 0.29383811, -0.07936888, -0.95195705, -2.52836084, 33.07324219, -0.49160624, 25.16175270, -3.83446074, -52.33442688, 3.17669725, 19.01420212, -120.97804260, -0.48165399, 0.15715188, 0.05753892, -0.86023372, 0.02608761, 0.02692232, 0.00597167, 97.80700684, 297.05014038, 0.00000000, 0.00000000
1, 3.3800, 169, 0.28908309, -0.07582857, -0.96178937, 10.95259666, 32.21841812, 5.43183661, 26.26400185, -3.52212167, -51.75822830, 3.45914292, 19.63142014, -120.82021332, -0.48186433, 0.16286387, 0.05828096, -0.85900265, 0.04239618, 0.02179104, 0.01988043, 97.80700684, 297.05014038, 0.00000000, 0.00000000
1, 3.4000, 170, 0.29268765, -0.01638539, -0.97816461, 10.25700474, 21.75856018, 3.40365195, 26.93115425, -1.90363348, -50.81814194, 3.69256926, 20.06569481, -120.74554443, -0.48166400, 0.16704118, 0.05850058, -0.85829771, 0.04674622, -0.04253900, 0.03938439, 97.80700684, 297.05014038, 0.00000000, 0.00000000
1, 3.4200, 171, 0.31644177, -0.06782024, -0.94961846, 5.72391272, 29.97176743, -7.90063143, 28.67154694, -2.49991822, -48.69534302, 3.74319386, 20.69023132, -120.88223267, -0.47993818, 0.17197111, 0.06059403, -0.85814553, 0.03133937, 0.00656665, 0.01404998, 97.80700684, 297.05014038, 0.00000000, 0.00000000
1, 3.4400, 172, 0.33455807, -0.08391213, -0.93596679, -1.85705817, 39.42306519, -9.74569035, 29.19366455, -1.67647743, -47.84622574, 3.64899874, 21.50625229, -121.03652954, -0.47808823, 0.17772964, 0.06454811, -0.85771644, 0.02503734, 0.02370720, 0.00480957, 97.80700684, 297.05014038, 0.00000000, 0.00000000
1, 3.4600, 173, 0.35781112, -0.09325104, -0.95640224, 0.02707549, 46.23829651, -8.77482224, 30.67299843, -1.70487189, -46.39059448, 3.60921669, 22.42846298, -121.15699768, -0.47627842, 0.18448606, 0.06858023, -0.85698342, 0.01649467, 0.03476885, 0.03095181, 97.80700684, 297.05014038, 0.00000000, 0.00000000
1, 3.4800, 174, 0.34320354, -0.08343314, -0.91356736, -1.06814277, 32.74676895, -3.68013287, 31.80425453, -0.88143104, -45.81441116, 3.55124712, 23.07648468, -121.19952393, -0.47535661, 0.18908133, 0.07169572, -0.85623831, 0.04399121, 0.02552196, -0.00660580, 97.80700684, 297.05014038, 0.00000000, 0.00000000
1, 3.5000, 175, 0.36762431, -0.07057613, -0.94490010, -13.23122025, 27.98802185, -2.55487514, 32.44239807, -1.10858703, -43.96455002, 3.28442574, 23.64377594, -121.20948029, -0.47510841, 0.19218844, 0.07607652, -0.85530585, 0.02873636, 0.01586332, 0.02844093, 97.80700684, 297.05014038, 0.00000000, 0.00000000
1, 3.5200, 176, 0.38672668, -0.07518715, -0.95572090, -9.73371220, 28.81602097, 2.78639531, 32.90650558, -0.79624701, -43.20640564, 3.12910485, 24.22116661, -121.12291718, -0.47538397, 0.19576299, 0.07982703, -0.85399920, 0.01892144, 0.02416246, 0.04312044, 97.80700684, 297.05014038, 0.00000000, 0.00000000
1, 3.5400, 177, 0.39166081, -0.07375044, -0.94182295, -3.09681535, 29.76057625, 2.89323258, 34.09577179, -0.48390785, -41.11393738, 3.11666298, 24.80972099, -121.02526855, -0.47547737, 0.19999586, 0.08258190, -0.85270345, 0.02330301, 0.02443408, 0.03332629, 97.80700684, 297.05014038, 0.00000000, 0.00000000
1, 3.5600, 178, 0.39449841, -0.05685701, -0.92203224, -3.16794181, 27.93837166, 1.28363574, 35.14001083, -1.59129345, -39.26407623, 3.06640363, 25.36351585, -120.96509552, -0.47538590, 0.20383352, 0.08540860, -0.85156649, 0.02955498, 0.00766750, 0.01773518, 97.80700684, 297.05014038, 0.00000000, 0.00000000
1, 3.5800, 179, 0.40231267, -0.04833072, -0.92962068, -8.96129417, 27.05619049, -0.51775301, 35.28503799, -0.71106291, -38.26332855, 2.89343143, 25.90383339, -120.96121979, -0.47510570, 0.20709935, 0.08898842, -0.85056782, 0.03037456, 0.00152364, 0.02929601, 97.80700684, 297.05014038, 0.00000000, 0.00000000
1, 3.6000, 180, 0.41097003, -0.06364541, -0.91813564, -3.02963138, 25.74113655, -0.97079802, 36.01020432, -0.08638465, -35.71596527, 2.83795047, 26.41806793, -120.95467377, -0.47465992, 0.21065418, 0.09158719, -0.84966731, 0.02989946, 0.01888504, 0.02168403, 97.80700684, 297.05014038, 0.00000000, 0.00000000
1, 3.6200, 181, 0.41532138, -0.04268679, -0.92121708, -2.65072942, 25.10993767, -3.14664721, 36.27126312, 0.02719472, -35.83727264, 2.75846148, 26.92907906, -121.01178741, -0.47378528, 0.21413435, 0.09422898, -0.84899652, 0.03347735, -0.00105174, 0.02865804, 97.80700684, 297.05014038, 0.00000000, 0.00000000
1, 3.6400, 182, 0.43214828, -0.05660322, -0.91463321, -2.94483876, 28.65842628, -2.98891068, 36.85139465, -0.25675094, -32.95634079, 2.67824841, 27.51860237, -121.05204773, -0.47293952, 0.21817374, 0.09723225, -0.84810042, 0.02504831, 0.01434456, 0.02627584, 97.80700684, 297.05014038, 0.00000000, 0.00000000
1, 3.6600, 183, 0.44951633, -0.06581682, -0.92768174, -1.32943952, 36.32564926, -4.67144632, 37.37351227, 0.22595632, -32.41047287, 2.63003135, 28.24923515, -121.11483765, -0.47168785, 0.22339836, 0.10054132, -0.84705091, 0.01813890, 0.02513814, 0.04471312, 97.80700684, 297.05014038, 0.00000000, 0.00000000
1, 3.6800, 184, 0.43764317, -0.06039906, -0.88222694, -1.10711658, 34.86598969, -4.26601076, 37.48953629, 0.16916756, -30.04507828, 2.56135249, 28.94223022, -121.19116211, -0.47041026, 0.22827043, 0.10380587, -0.84606808, 0.04115748, 0.02036870, 0.00522176, 97.80700684, 297.05014038, 0.00000000, 0.00000000
1, 3.7000, 185, 0.46090910, -0.04924842, -0.88677764, -9.44174767, 29.46774483, -8.38024426, 38.12768173, -0.31353971, -27.98293304, 2.28566575, 29.54060555, -121.35911560, -0.46898463, 0.23168464, 0.10800475, -0.84540558, 0.02755149, 0.01211339, 0.01498672, 97.80700684, 297.05014038, 0.00000000, 0.00000000
1, 3.7200, 186, 0.47871420, -0.05638196, -0.89359564, -9.80203438, 35.75210953, -9.55285645, 37.86662674, 0.56669074, -26.83055687, 1.99789822, 30.26769066, -121.56008911, -0.46718979, 0.23603432, 0.11273998, -0.84457761, 0.01966607, 0.02405473, 0.02724663, 97.80700684, 297.05014038, 0.00000000, 0.00000000
1, 3.7400, 187, 0.47664821, -0.06067760, -0.87355781, -2.44410706, 36.30924225, -8.15570450, 38.62079239, 0.65187299, -24.67743683, 1.87678087, 30.99993706, -121.71150970, -0.46541259, 0.24105901, 0.11634647, -0.84365004, 0.03291845, 0.03185246, 0.01361553, 97.80700684, 297.05014038, 0.00000000, 0.00000000
1, 3.7600, 188, 0.47600862, -0.04478886, -0.86148965, -0.81237012, 38.48281479, -1.14941204, 38.64979935, -0.45551255, -24.34385681, 1.86973095, 31.76950836, -121.69871521, -0.46454477, 0.24664871, 0.11960011, -0.84205610, 0.04475049, 0.01702268, 0.00824433, 97.80700684, 297.05014038, 0.00000000, 0.00000000
1, 3.7800, 189, 0.49132058, -0.01747029, -0.86016202, 0.24706756, 38.75713730, 2.70440602, 39.86807632, 0.11237880, -22.25138092, 1.91638243, 32.53387451, -121.62926483, -0.46396050, 0.25234541, 0.12255893, -0.84026289, 0.04094390, -0.01048053, 0.01405220, 97.80700684, 297.05014038, 0.00000000, 0.00000000
1, 3.8000, 190, 0.49752912, -0.00406293, -0.85722244, -2.92315149, 34.71965027, -5.85268354, 39.28794479, -0.31353971, -20.49249268, 1.77725840, 33.22852325, -121.75614166, -0.46242246, 0.25698417, 0.12615259, -0.83917236, 0.04541734, -0.02349391, 0.01791312, 97.80700684, 297.05014038, 0.00000000, 0.00000000
1, 3.8200, 191, 0.51939380, -0.01123090, -0.85035455, -9.88894939, 38.65707397, -15.69313431, 39.20092392, -0.42711726, -19.91630936, 1.38120353, 34.03041458, -122.11930084, -0.45959729, 0.26164198, 0.13150474, -0.83846307, 0.03394729, -0.01192736, 0.01773037, 97.80700684, 297.05014038, 0.00000000, 0.00000000
1, 3.8400, 192, 0.53783727, -0.05256011, -0.84237361, -5.20940924, 46.07116699, -14.70507717, 39.75204849, 0.45311138, -17.91481781, 1.10312259, 34.94701385, -122.44447327, -0.45664471, 0.26758826, 0.13649672, -0.83740127, 0.02855544, 0.03500907, 0.01843560, 97.80700684, 297.05014038, 0.00000000, 0.00000000
1, 3.8600, 193, 0.52912694, -0.02493717, -0.80896717, -1.10665643, 36.53818893, -9.95872402, 39.14291000, -2.35794544, -17.03537750, 0.94401765, 35.66545486, -122.67149353, -0.45440111, 0.27246061, 0.14000952, -0.83647007, 0.04915823, 0.01028449, -0.00672975, 97.80700684, 297.05014038, 0.00000000, 0.00000000
1, 3.8800, 194, 0.55523843, -0.02087967, -0.82145166, -6.47587824, 27.65087128, -10.08276463, 38.88185120, -0.42711726, -16.09527588, 0.66830540, 36.21958923, -122.92613983, -0.45245987, 0.27571821, 0.14362338, -0.83584207, 0.03178426, 0.00938670, 0.01196696, 97.80700684, 297.05014038, 0.00000000, 0.00000000
1, 3.9000, 195, 0.55486655, -0.02315475, -0.81307632, -4.83357191, 27.03823662, -7.54710484, 39.40396881, -0.00120058, -15.15518284, 0.46866006, 36.75724411, -123.10565186, -0.45091429, 0.27907154, 0.14677642, -0.83501625, 0.03985420, 0.01528172, 0.00918629, 97.80700684, 297.05014038, 0.00000000, 0.00000000
1, 3.9200, 196, 0.55101496, -0.01780589, -0.78657341, -3.11412311, 22.80430794, -7.04309368, 38.91085815, 0.02719472, -14.79127312, 0.29496965, 37.20280838, -123.30972290, -0.44925556, 0.28189486, 0.14929950, -0.83451438, 0.05068151, 0.01243108, -0.01213071, 97.80700684, 297.05014038, 0.00000000, 0.00000000
1, 3.9400, 197, 0.55519682, -0.00321036, -0.79157156, 0.80057621, 15.65735149, -9.54996490, 39.98410034, 0.02719472, -13.76020432, 0.16681771, 37.51639175, -123.54950714, -0.44740584, 0.28398952, 0.15087067, -0.83451539, 0.05170035, 0.00005877, -0.00320148, 97.80700684, 297.05014038, 0.00000000, 0.00000000
1, 3.9600, 198, 0.59089947, -0.02756280, -0.82581657, 0.96433908, 18.00836372, -7.53071213, 39.78105545, -0.54069662, -13.15369034, 0.07387222, 37.88164520, -123.73472595, -0.44579962, 0.28653094, 0.15251182, -0.83420801, 0.02051168, 0.02597153, 0.03450671, 97.80700684, 297.05014038, 0.00000000, 0.00000000
1, 3.9800, 199, 0.60836655, -0.05545346, -0.82998317, 4.99437809, 20.62571526, -2.73923421, 38.73682022, -0.19996218, -12.39554882, 0.14696738, 38.29256058, -123.81156158, -0.44450238, 0.28990668, 0.15338489, -0.83357364, 0.00847663, 0.05429794, 0.04290003, 97.80700684, 297.05014038, 0.00000000, 0.00000000
1, 4.0000, 200, 0.58827913, -0.00808147, -0.80610311, 7.94297218, 20.20154762, 2.58198881, 39.22993088, -0.42711726, -11.81936550, 0.34931159, 38.68478012, -123.74414063, -0.44393978, 0.29344991, 0.15361026, -0.83259147, 0.03421523, 0.00470268, 0.02348841, 97.80700684, 297.05014038, 0.00000000, 0.00000000
1, 4.0200, 201, 0.57172996, 0.01273216, -0.78249037, 4.47830963, 10.31761456, -0.51998240, 38.47576141, -1.96042228, -11.15219784, 0.38165265, 38.86946869, -123.83779144, -0.44291991, 0.29504094, 0.15385248, -0.83252758, 0.05486125, -0.01833594, 0.00316292, 97.80700684, 297.05014038, 0.00000000, 0.00000000
1, 4.0400, 202, 0.59249282, -0.01406644, -0.80781806, -3.43610120, 7.51316547, -5.35353327, 38.96887589, -1.64808309, -10.97024727, 0.22071120, 39.02375793, -123.97962952, -0.44209036, 0.29573056, 0.15525396, -0.83246374, 0.03605070, 0.00984374, 0.03005563, 97.80700684, 297.05014038, 0.00000000, 0.00000000
1, 4.0600, 203, 0.61129767, -0.01535302, -0.82735103, -6.09508610, 16.22157860, -7.91811228, 38.70781708, -0.93821985, -9.81787300, -0.02955285, 39.36268234, -124.18613434, -0.44077125, 0.29750931, 0.15784411, -0.83204216, 0.02028278, 0.01403553, 0.05204384, 97.80700684, 297.05014038, 0.00000000, 0.00000000
1, 4.0800, 204, 0.62037379, -0.02267224, -0.80104977, -3.96852183, 24.18498993, -9.25728321, 38.30172348, -1.05179739, -9.84819508, -0.25622311, 39.83881378, -124.44728088, -0.43881413, 0.30046001, 0.16063231, -0.83148265, 0.01704917, 0.02476639, 0.03054187, 97.80700684, 297.05014038, 0.00000000, 0.00000000
1, 4.1000, 205, 0.61918497, -0.01579530, -0.78516614, 2.67640853, 18.00397873, -8.03134632, 38.88185120, -0.59748536, -9.63591385, -0.33892286, 40.19208908, -124.65779877, -0.43702057, 0.30300587, 0.16202319, -0.83123350, 0.02394779, 0.01979094, 0.01942340, 97.80700684, 297.05014038, 0.00000000, 0.00000000
1, 4.1200, 206, 0.61513400, -0.00909701, -0.76528633, 1.45042777, 13.77604294, -7.68304396, 38.70781708, -1.53450465, -9.18102837, -0.45937249, 40.46124268, -124.90550232, -0.43517470, 0.30485409, 0.16325921, -0.83128428, 0.03208213, 0.01422520, 0.00299804, 97.80700684, 297.05014038, 0.00000000, 0.00000000
1, 4.1400, 207, 0.61928916, -0.00984897, -0.76578093, -1.90033221, 12.35286427, -7.59143448, 38.73682022, -0.73945820, -8.69582081, -0.63575697, 40.70639801, -125.11289215, -0.43380669, 0.30626383, 0.16490893, -0.83115548, 0.03127719, 0.01699574, 0.00636606, 97.80700684, 297.05014038, 0.00000000, 0.00000000
1, 4.1600, 208, 0.63694882, -0.00924400, -0.79135430, -4.88390732, 14.67719746, -9.80099106, 38.59178543, -0.73945820, -8.69582081, -0.90442812, 41.00077057, -125.37863159, -0.43220133, 0.30777425, 0.16724709, -0.83096665, 0.01706760, 0.01939315, 0.03494365, 97.80700684, 297.05014038, 0.00000000, 0.00000000
1, 4.1800, 209, 0.63114774, -0.02489545, -0.78347069, -3.07357264, 22.59604836, -9.91830063, 38.59178543, -1.36413741, -8.84744930, -1.13424289, 41.44402695, -125.65474701, -0.43022501, 0.31053987, 0.16981457, -0.83044231, 0.02769247, 0.03848005, 0.03131368, 97.80700684, 297.05014038, 0.00000000, 0.00000000
1, 4.2000, 210, 0.63711071, -0.00802772, -0.77316546, -5.69032764, 23.30328560, -3.85042787, 38.79483414, -1.27895427, -7.69507456, -1.33386183, 41.91618347, -125.77577972, -0.42926022, 0.31340584, 0.17267327, -0.82927465, 0.02773164, 0.02395493, 0.02635461, 97.80700684, 297.05014038, 0.00000000, 0.00000000
1, 4.2200, 211, 0.64464325, -0.00116404, -0.76043576, -6.87335014, 29.92378235, -5.82849121, 38.56278229, -0.79624701, -6.78530359, -1.59409213, 42.51720047, -125.97776031, -0.42771205, 0.31710812, 0.17620368, -0.82792336, 0.02716068, 0.02008617, 0.01995360, 97.80700684, 297.05014038, 0.00000000, 0.00000000
1, 4.2400, 212, 0.65216726, 0.01587220, -0.75521171, -5.90646696, 34.75498581, -7.21595860, 38.47576141, -1.27895427, -6.81563425, -1.85830283, 43.20011520, -126.20497131, -0.42589581, 0.32143635, 0.17996286, -0.82638055, 0.02803513, 0.00621938, 0.02252721, 97.80700684, 297.05014038, 0.00000000, 0.00000000
1, 4.2600, 213, 0.65821254, 0.03158796, -0.77426004, 0.53100646, 24.89883423, -11.29155254, 38.53377533, -1.08019269, -6.08781433, -2.08741355, 43.68447495, -126.55443573, -0.42337716, 0.32465610, 0.18237622, -0.82588691, 0.02957971, -0.00677131, 0.04878014, 97.80700684, 297.05014038, 0.00000000, 0.00000000
1, 4.2800, 214, 0.67399406, -0.01408905, -0.74624246, -1.31995690, 22.34361649, -13.46451950, 38.50476837, -1.10858703, -6.17879009, -2.39034247, 44.12100983, -126.96707153, -0.42068920, 0.32737246, 0.18494315, -0.82561731, 0.01941507, 0.04228010, 0.02625317, 97.80700684, 297.05014038, 0.00000000, 0.00000000
1, 4.3000, 215, 0.67245293, 0.00653133, -0.73912954, -2.97097898, 28.00147247, -9.00660992, 38.50476837, -0.88143104, -4.81414175, -2.63503385, 44.68104553, -127.23532104, -0.41872728, 0.33098099, 0.18791309, -0.82450455, 0.02704877, 0.02504386, 0.02520117, 97.80700684, 297.05014038, 0.00000000, 0.00000000
1, 4.3200, 216, 0.68903726, 0.00239569, -0.72595501, -3.68047833, 35.20578384, -1.29881608, 38.21470261, -2.04560637, -5.51163101, -2.77170539, 45.37948227, -127.33762360, -0.41747272, 0.33571967, 0.19104730, -0.82250214, 0.01838660, 0.03091928, 0.01995803, 97.80700684, 297.05014038, 0.00000000, 0.00000000
1, 4.3400, 217, 0.70899034, 0.00001998, -0.73809171, -1.71558094, 28.41777802, 0.67022038, 38.09867477, -2.27276230, -3.78306532, -2.81663656, 45.93410492, -127.36026001, -0.41670787, 0.33961138, 0.19323942, -0.82077837, 0.00646307, 0.03417823, 0.04027290, 97.80700684, 297.05014038, 0.00000000, 0.00000000
1, 4.3600, 218, 0.69127703, 0.01753824, -0.71312457, -1.46504891, 23.39585304, -1.96375728, 38.15669250, -1.93202782, -3.29785728, -2.91433859, 46.40044022, -127.45573425, -0.41569278, 0.34279132, 0.19527662, -0.81948805, 0.03005360, 0.01696977, 0.02139699, 97.80700684, 297.05014038, 0.00000000, 0.00000000
1, 4.3800, 219, 0.69130319, 0.04169235, -0.70184076, -0.11868603, 26.86937904, -5.64976406, 37.98265076, -2.10239506, -2.60036802, -3.09161377, 46.93907928, -127.70677948, -0.41371116, 0.34647271, 0.19765024, -0.81837279, 0.03587024, -0.00587657, 0.01632605, 97.80700684, 297.05014038, 0.00000000, 0.00000000
1, 4.4000, 220, 0.69726729, 0.01998316, -0.67572743, -2.49847007, 38.09963989, -4.76132059, 37.86662674, -2.95423126, -1.96353185, -3.29779291, 47.71140289, -127.91072083, -0.41184983, 0.35165977, 0.20114619, -0.81624466, 0.03766019, 0.01773496, -0.00135993, 97.80700684, 297.05014038, 0.00000000, 0.00000000
1, 4.4200, 221, 0.76063681, -0.02315943, -0.71568924, -1.81733215, 43.71278381, -5.65264702, 38.09867477, -2.64189100, -1.87254834, -3.48609805, 48.54243851, -128.16418457, -0.40951082, 0.35742188, 0.20452248, -0.81407690, -0.01556447, 0.06304223, 0.04990992, 97.80700684, 297.05014038, 0.00000000, 0.00000000
1, 4.4400, 222, 0.75755709, -0.03931377, -0.71237004, 6.88500214, 22.49464607, 3.68423462, 38.09867477, -2.47152400, -1.56929147, -3.27811980, 48.99214935, -128.07263184, -0.40889481, 0.36123496, 0.20485333, -0.81261897, -0.00538178, 0.07851678, 0.05457711, 97.80700684, 297.05014038, 0.00000000, 0.00000000
1, 4.4600, 223, 0.71952802, 0.01700330, -0.69028097, 8.58783722, 14.36884594, 12.84226894, 38.24370956, -3.55051589, -1.66027486, -2.82288980, 49.28310776, -127.70753479, -0.40963215, 0.36429587, 0.20377246, -0.81115156, 0.03694722, 0.01794121, 0.03719539, 97.80700684, 297.05014038, 0.00000000, 0.00000000
1, 4.4800, 224, 0.72438949, 0.04020021, -0.65911895, 10.41147327, 8.82306290, 7.53447437, 37.69258499, -4.34556246, -1.08408368, -2.48995519, 49.45635605, -127.55681610, -0.40938702, 0.36645740, 0.20248987, -0.81062263, 0.03458462, -0.01030934, 0.00868552, 97.80700684, 297.05014038, 0.00000000, 0.00000000
1, 4.5000, 225, 0.71150398, 0.02724225, -0.64455062, 4.79438353, 5.03775311, 0.44177321, 37.75059891, -4.34556246, -1.02343071, -2.40394092, 49.55587769, -127.55774689, -0.40895951, 0.36747703, 0.20221998, -0.81044430, 0.04902611, 0.00021636, -0.00417098, 97.80700684, 297.05014038, 0.00000000, 0.00000000
1, 4.5200, 226, 0.73256058, -0.00527533, -0.65287936, -3.07862616, 4.40348530, -5.02603054, 38.01165771, -5.14060974, -0.90213269, -2.59521413, 49.61641312, -127.79840088, -0.40778235, 0.36765334, 0.20300807, -0.81076026, 0.02898174, 0.03332222, 0.00537171, 97.80700684, 297.05014038, 0.00000000, 0.00000000
1, 4.5400, 227, 0.72860444, -0.00882610, -0.66923237, 1.31083429, -7.67299080, 0.81843615, 38.12768173, -3.83446074, -0.87180221, -2.50650024, 49.43387222, -127.74163055, -0.40816474, 0.36656389, 0.20193888, -0.81132811, 0.03262034, 0.03832468, 0.02141604, 97.80700684, 297.05014038, 0.00000000, 0.00000000
1, 4.5600, 228, 0.71646631, 0.01432673, -0.66816145, 8.78936195, -20.79833603, 7.96806717, 37.63457108, -3.94803905, -1.20538962, -2.13117671, 49.02539825, -127.46656036, -0.40951279, 0.36450145, 0.19875379, -0.81236374, 0.04084271, 0.01208246, 0.01564231, 97.80700684, 297.05014038, 0.00000000, 0.00000000
1, 4.5800, 229, 0.72775066, 0.04047022, -0.68761218, -0.13044101, -16.70118332, 5.41978836, 37.80860901, -4.82826948, -0.93245518, -2.04072976, 48.69762421, -127.35704803, -0.41048419, 0.36229199, 0.19732548, -0.81320971, 0.02516306, -0.01681382, 0.02991982, 97.80700684, 297.05014038, 0.00000000, 0.00000000
1, 4.6000, 230, 0.72873080, 0.03789398, -0.73288453, -0.29591191, -6.53232431, -2.76408434, 37.86662674, -5.14060974, -1.56929147, -2.11481285, 48.58043671, -127.46199036, -0.41014451, 0.36136857, 0.19711412, -0.81384295, 0.02154854, -0.01413912, 0.07219075, 97.80700684, 297.05014038, 0.00000000, 0.00000000
1, 4.6200, 231, 0.74033308, 0.00479426, -0.72113538, 7.03297758, 2.65337014, -14.80851936, 37.31550217, -4.45914078, -1.53896892, -2.31766295, 48.61537933, -127.95948792, -0.40719798, 0.36175147, 0.19710657, -0.81515318, 0.00974744, 0.02071439, 0.06028135, 97.80700684, 297.05014038, 0.00000000, 0.00000000
1, 4.6400, 232, 0.71662313, -0.00138320, -0.66679025, 10.14357948, 2.67957330, -12.07615948, 37.77960205, -4.17519522, -1.08408368, -2.39545727, 48.66013718, -128.31231689, -0.40486863, 0.36240345, 0.19669802, -0.81612194, 0.03388041, 0.02857515, 0.00648346, 97.80700684, 297.05014038, 0.00000000, 0.00000000
1, 4.6600, 233, 0.70739704, 0.04399888, -0.64692599, -5.92215919, 2.30136251, -9.57288647, 38.21470261, -5.68010473, -1.35701799, -2.74434948, 48.69236755, -128.60824585, -0.40381804, 0.36191428, 0.19835712, -0.81645787, 0.04366228, -0.01474365, -0.01265945, 97.80700684, 297.05014038, 0.00000000, 0.00000000
1, 4.6800, 234, 0.72342503, 0.02126855, -0.67556143, -6.46374083, -1.05060422, -8.60916519, 37.69258499, -4.74308538, -0.99310815, -3.09236288, 48.64988327, -128.94509888, -0.40257293, 0.36096868, 0.19963290, -0.81718028, 0.02752287, 0.01251232, 0.01606539, 97.80700684, 297.05014038, 0.00000000, 0.00000000
1, 4.7000, 235, 0.73145610, -0.00526284, -0.68532968, -6.83872509, -2.12132478, -2.31829715, 37.83761597, -6.27639055, -1.66027486, -3.26706481, 48.60611343, -128.99295044, -0.40284032, 0.36012229, 0.20058219, -0.81718928, 0.01898263, 0.04216141, 0.02542056, 97.80700684, 297.05014038, 0.00000000, 0.00000000
1, 4.7200, 236, 0.71444541, 0.05912932, -0.68137544, -8.61699677, -0.33669603, 2.31994319, 37.60556793, -4.77148104, -1.47831607, -3.46404052, 48.57881927, -129.05459595, -0.40305549, 0.35934079, 0.20170258, -0.81715155, 0.03570399, -0.02087611, 0.02121456, 97.80700684, 297.05014038, 0.00000000, 0.00000000
1, 4.7400, 237, 0.72806722, 0.03161963, -0.68704396, -6.83311605, -3.93232584, -6.33748674, 37.80860901, -4.51592970, -1.56929147, -3.73599434, 48.49145508, -129.24304199, -0.40267742, 0.35808563, 0.20276320, -0.81762636, 0.02135980, 0.00995865, 0.02626442, 97.80700684, 297.05014038, 0.00000000, 0.00000000
1, 4.7600, 238, 0.73203194, -0.00424621, -0.69637704, -3.23011923, -5.76978064, -3.63854623, 38.04066086, -4.43074656, -1.26603460, -3.86281109, 48.37078857, -129.32394409, -0.40265170, 0.35690972, 0.20301774, -0.81808972, 0.01616015, 0.04844097, 0.03436881, 97.80700684, 297.05014038, 0.00000000, 0.00000000
1, 4.7800, 239, 0.70678681, 0.03053852, -0.69155335, -8.46236134, -7.23122454, 4.21092749, 37.28649139, -4.91345263, -2.23645830, -3.95126963, 48.21751022, -129.23252869, -0.40377593, 0.35532609, 0.20342778, -0.81812316, 0.03979211, 0.01478235, 0.02780235, 97.80700684, 297.05014038, 0.00000000, 0.00000000
1, 4.8000, 240, 0.69922251, 0.04764283, -0.69473159, -16.96101570, -8.21375656, 12.06987000, 37.02543259, -5.16900396, -1.59962189, -4.01004553, 48.07489777, -128.84979248, -0.40687117, 0.35340410, 0.20455812, -0.81713974, 0.04555555, -0.00132022, 0.02902936, 97.80700684, 297.05014038, 0.00000000, 0.00000000
1, 4.8200, 241, 0.68912363, 0.05935758, -0.68242979, -16.59154510, -7.36239958, 13.27358150, 37.46053314, -5.48134327, -1.59962189, -4.05613756, 47.94613266, -128.49746704, -0.40968919, 0.35167781, 0.20554072, -0.81622946, 0.05415855, -0.01235461, 0.01510521, 97.80700684, 297.05014038, 0.00000000, 0.00000000
1, 4.8400, 242, 0.71943945, 0.03092129, -0.67706674, -11.09704018, -5.21057177, 9.93308926, 37.34450531, -5.68010473, -1.96353185, -4.04794073, 47.85319901, -128.19361877, -0.41194713, 0.35048974, 0.20610109, -0.81546247, 0.02259136, 0.01650826, 0.00838104, 97.80700684, 297.05014038, 0.00000000, 0.00000000
1, 4.8600, 243, 0.72562224, 0.03130725, -0.71668649, -6.47070074, -5.33074808, 6.49050951, 37.72159195, -5.65171051, -1.17505908, -4.02850819, 47.75851440, -128.00466919, -0.41335461, 0.34953570, 0.20622021, -0.81512940, 0.01519475, 0.01597667, 0.04664594, 97.80700684, 297.05014038, 0.00000000, 0.00000000
1, 4.8800, 244, 0.71989518, 0.05309415, -0.70746607, -2.46860671, -4.07664299, -2.10428667, 38.06966782, -6.36157370, -1.44799352, -4.19550753, 47.63911819, -128.22514343, -0.41244763, 0.34846789, 0.20633434, -0.81601679, 0.01974876, -0.00501281, 0.03618811, 101.66300201, -28.09808350, 24.18999863, 0.00000000
1, 4.9000, 245, 0.73219550, 0.02639359, -0.69841248, -0.08496932, -9.01694870, -8.12584305, 37.54755020, -5.93565607, -1.84222591, -4.35025024, 47.44388962, -128.43888855, -0.41164061, 0.34688258, 0.20613258, -0.81714982, 0.00565855, 0.02406218, 0.02534150, 101.66300201, -28.09808350, 24.18999863, 0.00000000
1, 4.9200, 246, 0.71225697, 0.02701345, -0.69908923, -1.91188884, -10.28833485, -2.98326516, 38.09867477, -5.25418711, -2.35776424, -4.45440865, 47.21680069, -128.53599548, -0.41154480, 0.34503621, 0.20582190, -0.81805766, 0.02313044, 0.02487794, 0.02343266, 101.66300201, -28.09808350, 24.18999863, 0.00000000
1, 4.9400, 247, 0.69331372, 0.03265693, -0.72507286, -15.65145206, -13.49855137, 8.43704796, 37.46053314, -5.31097603, -2.44873977, -4.56611919, 46.96054077, -128.24244690, -0.41429082, 0.34224585, 0.20663939, -0.81763756, 0.03912557, 0.02083771, 0.04634643, 101.66300201, -28.09808350, 24.18999863, 0.00000000
1, 4.9600, 248, 0.71584827, 0.02693751, -0.71624601, -24.34778404, -13.87688923, 14.97840309, 37.51854324, -6.13441753, -3.08557606, -4.71462297, 46.70630264, -127.77545166, -0.41837409, 0.33901685, 0.20822689, -0.81650007, 0.01353466, 0.02832924, 0.03437750, 101.66300201, -28.09808350, 24.18999863, 0.00000000
1, 4.9800, 249, 0.70790482, 0.04518153, -0.67890519, -17.32265282, -14.75759602, 11.96203995, 37.48953629, -5.93565607, -3.51013875, -4.78190756, 46.43440628, -127.42861938, -0.42137566, 0.33616811, 0.20880145, -0.81598747, 0.01823458, 0.01197409, -0.00626154, 101.66300201, -28.09808350, 24.18999863, 0.00000000
1, 5.0000, 250, 0.69936240, 0.03663144, -0.71204978, -4.17216921, -14.85076714, 12.10601711, 37.22847748, -5.93565607, -2.78231907, -4.57745171, 46.15991974, -127.05202484, -0.42379642, 0.33424947, 0.20750391, -0.81585300, 0.02358546, 0.01996717, 0.02347079, 101.66300201, -28.09808350, 24.18999863, 0.00000000
1, 5.0200, 251, 0.68962777, 0.05362539, -0.71953034, 4.47194719, -12.57245445, 7.47701788, 37.57655716, -6.24799633, -3.54046130, -4.34446859, 45.91494370, -126.87995911, -0.42464802, 0.33302814, 0.20549691, -0.81641746, 0.03018354, 0.00013801, 0.02744692, 101.66300201, -28.09808350, 24.18999863, 0.00000000
1, 5.0400, 252, 0.69700944, 0.03374682, -0.72563165, 4.82658863, -12.60681629, 3.49498749, 37.98265076, -6.44675779, -3.60111427, -4.14896250, 45.66127777, -126.74304199, -0.42537457, 0.33167234, 0.20361683, -0.81706202, 0.01985922, 0.01793879, 0.03034288, 101.66300201, -28.09808350, 24.18999863, 0.00000000
1, 5.0600, 253, 0.68803138, -0.01675493, -0.72826380, 4.31266069, -22.36788559, 13.85864830, 37.46053314, -6.56033516, -4.23795080, -3.74159479, 45.22113800, -126.28707123, -0.42801005, 0.32920015, 0.20047858, -0.81746131, 0.02477395, 0.06522842, 0.02858284, 101.66300201, -28.09808350, 24.18999863, 0.00000000
1, 5.0800, 254, 0.68223363, 0.02223359, -0.73629671, 0.50625020, -30.31662750, 18.94021606, 37.69258499, -6.64551926, -4.05599976, -3.33015537, 44.62774658, -125.72412872, -0.43161795, 0.32547733, 0.19703391, -0.81789261, 0.02404271, 0.02132762, 0.02970773, 101.66300201, -28.09808350, 24.18999863, 0.00000000
1, 5.1000, 255, 0.68197149, -0.00381403, -0.76196867, -5.33954096, -42.45568848, 25.58304024, 37.75059891, -8.23561192, -4.72315836, -2.89973736, 43.79121780, -124.94297028, -0.43708023, 0.31973848, 0.19312228, -0.81818831, 0.01568498, 0.04270123, 0.04660328, 101.66300201, -28.09808350, 24.18999863, 0.00000000
1, 5.1200, 256, 0.67104900, 0.06121770, -0.75101030, -7.78801012, -46.83079910, 17.74355888, 36.93841171, -7.41217136, -6.33041859, -2.69977188, 42.87468338, -124.44239807, -0.44131392, 0.31305313, 0.18969062, -0.81930292, 0.01508398, -0.02603036, 0.02439669, 101.66300201, -28.09808350, 24.18999863, 0.00000000
1, 5.1400, 257, 0.64312965, 0.03500916, -0.73035449, -3.25748014, -41.86643219, 3.30440784, 36.99642563, -7.63932753, -6.20912027, -2.68053746, 42.04370117, -124.32315826, -0.44319984, 0.30692551, 0.18677746, -0.82127029, 0.03184646, -0.00062851, -0.00667484, 101.66300201, -28.09808350, 24.18999863, 0.00000000
1, 5.1600, 258, 0.57725507, 0.04879856, -0.70136136, -1.22559810, -50.16552353, -8.79512691, 36.96741867, -8.71831989, -6.45172453, -2.82987952, 40.99749374, -124.49803925, -0.44366571, 0.29904395, 0.18347667, -0.82466340, 0.08626609, -0.01303354, -0.04592681, 101.66300201, -28.09808350, 24.18999863, 0.00000000
1, 5.1800, 259, 0.55037045, 0.01102220, -0.73063660, -14.21923161, -84.08626556, -2.56708550, 37.17046738, -7.29859304, -7.33116436, -3.11126995, 39.28364944, -124.45455933, -0.44676474, 0.28539339, 0.17919418, -0.82875901, 0.09506518, 0.02838754, -0.03212223, 101.66300201, -28.09808350, 24.18999863, 0.00000000
1, 5.2000, 260, 0.66827369, -0.12392210, -0.91429079, -30.38380051, -92.75642395, 9.96500397, 36.56132889, -7.12822580, -9.15070629, -3.42980242, 37.46139908, -124.02478790, -0.45271400, 0.27013797, 0.17565486, -0.83139700, -0.04781392, 0.16932519, 0.13140965, 101.66300201, -28.09808350, 24.18999863, 0.00000000
1, 5.2200, 261, 0.71273881, -0.13840260, -1.00358295, 0.54450834, -68.46266937, 31.59721756, 36.35828400, -7.92327309, -9.78754234, -2.83191323, 36.17323303, -123.13722229, -0.45918924, 0.26174277, 0.16842060, -0.83202797, -0.11448061, 0.18338652, 0.20356569, 101.66300201, -28.09808350, 24.18999863, 0.00000000
1, 5.2400, 262, 0.59995824, -0.04191172, -0.88466907, 29.75293159, -41.72574234, 38.88285446, 36.21325302, -8.86029243, -10.33340263, -1.64412856, 35.37116623, -122.13505554, -0.46468163, 0.25923669, 0.15891671, -0.83163267, -0.01554694, 0.07389394, 0.07386048, 101.66300201, -28.09808350, 24.18999863, 0.00000000
1, 5.2600, 263, 0.46669152, 0.08646762, -0.76028228, 21.91470909, -46.81796646, 32.86226273, 36.24225998, -9.93928432, -10.97024727, -0.81018728, 34.43173218, -121.36345673, -0.46953514, 0.25474894, 0.15081088, -0.83180273, 0.10580774, -0.07029589, -0.05944724, 101.66300201, -28.09808350, 24.18999863, 0.00000000
1, 5.2800, 264, 0.44426414, 0.09846841, -0.78108549, -9.35404873, -58.85559845, 4.40385056, 35.77815247, -9.14423752, -11.00057030, -0.97943258, 33.24958420, -121.28208160, -0.47189975, 0.24533293, 0.14740330, -0.83390331, 0.11271667, -0.08634932, -0.04933460, 101.66300201, -28.09808350, 24.18999863, 0.00000000
1, 5.3000, 265, 0.49972558, -0.05127456, -0.86698264, -26.25846481, -60.51970673, -2.51833439, 35.86516953, -9.45657730, -12.18326664, -1.52340424, 32.03491974, -121.29467773, -0.47430962, 0.23422128, 0.14638193, -0.83590859, 0.03978331, 0.06950954, 0.02521952, 101.66300201, -28.09808350, 24.18999863, 0.00000000
1, 5.3200, 266, 0.53994238, -0.06728464, -0.94256437, -27.64844894, -54.60950089, 9.44213676, 35.02397919, -9.08744812, -13.42662525, -1.91729856, 30.97398567, -121.04061127, -0.47806990, 0.22448142, 0.14542186, -0.83660609, -0.01795976, 0.09338786, 0.09002171, 101.66300201, -28.09808350, 24.18999863, 0.00000000
1, 5.3400, 267, 0.48956335, 0.00932700, -0.94855297, -4.63960648, -33.64723969, 15.10343742, 35.31404495, -9.25781536, -12.51685429, -1.78599656, 30.33087158, -120.66110992, -0.48124182, 0.21983552, 0.14254878, -0.83651578, 0.01976692, 0.01929305, 0.08846264, 101.66300201, -28.09808350, 24.18999863, 0.00000000
1, 5.3600, 268, 0.43010876, 0.03908147, -0.85534090, 11.98252678, -24.47342873, 19.08422089, 34.76292038, -10.28001881, -13.72988224, -1.31782889, 29.84302521, -120.19663239, -0.48423859, 0.21766384, 0.13798946, -0.83611858, 0.07134991, -0.01555281, -0.00951636, 101.66300201, -28.09808350, 24.18999863, 0.00000000
1, 5.3800, 269, 0.38906580, 0.06839582, -0.79970193, 3.57312894, -31.97309113, 24.49047661, 34.82093430, -10.19483471, -13.15369034, -0.98910320, 29.19942665, -119.64601135, -0.48830488, 0.21369694, 0.13392207, -0.83543813, 0.10388608, -0.05115793, -0.07017852, 101.66300201, -28.09808350, 24.18999863, 0.00000000
1, 5.4000, 270, 0.39829880, 0.04609937, -0.85268021, -4.39744091, -37.16702271, 23.39416504, 34.26980972, -10.56396389, -14.24541187, -0.81951213, 28.45940781, -119.09684753, -0.49276328, 0.20838359, 0.13055167, -0.83469576, 0.08399125, -0.03246235, -0.02321905, 101.66300201, -28.09808350, 24.18999863, 0.00000000
1, 5.4200, 271, 0.40257457, 0.05046178, -0.92118794, -10.02623081, -42.90345001, 24.03361130, 34.18278885, -11.95529556, -14.94290161, -0.77656895, 27.59801102, -118.56048584, -0.49747419, 0.20168027, 0.12749860, -0.83401954, 0.06768059, -0.03848629, 0.03874687, 101.66300201, -28.09808350, 24.18999863, 0.00000000
1, 5.4400, 272, 0.43179715, -0.01779173, -0.93007177, -16.99933052, -44.49013138, 28.45237160, 33.22557449, -11.95529556, -14.76095104, -0.79689252, 26.70820808, -117.87302399, -0.50339991, 0.19435067, 0.12496989, -0.83258569, 0.02468957, 0.03031168, 0.04043786, 101.66300201, -28.09808350, 24.18999863, 0.00000000
1, 5.4600, 273, 0.39779231, 0.05656762, -0.92172611, -9.36880970, -48.49773788, 48.12425232, 33.05153656, -11.50098324, -15.33713436, -0.50056255, 25.75616455, -116.78270721, -0.51175576, 0.18757913, 0.12043869, -0.82970762, 0.04409618, -0.04622873, 0.02472628, 101.66300201, -28.09808350, 24.18999863, 0.00000000
1, 5.4800, 274, 0.37729391, 0.03103879, -0.91555732, -6.60004950, -44.34634018, 46.57056046, 32.47140503, -11.64295578, -16.06495285, -0.19968244, 24.86620712, -115.78173065, -0.51938546, 0.18146190, 0.11588024, -0.82697171, 0.05027194, -0.02558146, 0.01159850, 101.66300201, -28.09808350, 24.18999863, 0.00000000
1, 5.5000, 275, 0.35219914, -0.00198788, -0.88752466, -10.72090816, -55.67291260, 38.87113953, 32.29736328, -12.29603004, -16.18625259, -0.08857019, 23.73496628, -114.92909241, -0.52646005, 0.17296709, 0.11124001, -0.82495326, 0.05983635, 0.00367506, -0.02362792, 101.66300201, -28.09808350, 24.18999863, 0.00000000
1, 5.5200, 276, 0.39332813, -0.00974596, -0.99064338, -26.25883865, -61.67552948, 28.47786331, 31.34014893, -13.37502098, -16.73212051, -0.37974548, 22.50922012, -114.34126282, -0.53225428, 0.16223548, 0.10853937, -0.82377440, -0.00083421, 0.01312874, 0.07091130, 101.66300201, -28.09808350, 24.18999863, 0.00000000
1, 5.5400, 277, 0.38966414, -0.06120244, -1.03121829, -20.28267479, -57.10780716, 17.07290840, 30.78902435, -12.38121319, -17.76318932, -0.63311350, 21.37176323, -113.95967102, -0.53633535, 0.15251356, 0.10559483, -0.82336742, -0.01612716, 0.06968442, 0.10365558, 101.66300201, -28.09808350, 24.18999863, 0.00000000
1, 5.5600, 278, 0.33634242, -0.02771799, -0.98567367, -17.53965187, -65.10868835, 26.49934196, 30.49896049, -12.52318478, -18.49100113, -0.78066868, 20.05212212, -113.36889648, -0.54184067, 0.14179674, 0.10122604, -0.82222599, 0.01790951, 0.03922858, 0.05061227, 101.66300201, -28.09808350, 24.18999863, 0.00000000
1, 5.5800, 279, 0.31199959, 0.06895114, -0.93694615, -25.10420418, -76.09860992, 25.73499107, 29.77379608, -12.46639633, -19.82533455, -1.12397838, 18.54907608, -112.82379150, -0.54727739, 0.12889467, 0.09721925, -0.82123196, 0.01833739, -0.05381496, -0.00677125, 101.66300201, -28.09808350, 24.18999863, 0.00000000
1, 5.6000, 280, 0.29309961, 0.06532671, -0.93879467, -36.27857208, -64.73968506, 12.91622162, 29.42571640, -12.92070961, -19.70402908, -1.76589298, 17.27495575, -112.53295135, -0.55089247, 0.11642048, 0.09606071, -0.82081431, 0.01403130, -0.04163230, -0.01255772, 101.66300201, -28.09808350, 24.18999863, 0.00000000
1, 5.6200, 281, 0.25111479, 0.09534889, -0.98399031, -31.83571625, -51.31718445, -6.74322844, 29.04863167, -12.69355297, -20.21956635, -2.41812158, 16.26483727, -112.69358063, -0.55095482, 0.10615156, 0.09576306, -0.82219827, 0.03685334, -0.06000299, 0.02701696, 101.66300201, -28.09808350, 24.18999863, 0.00000000
1, 5.6400, 282, 0.28334898, 0.00818432, -0.94563675, -14.80065155, -35.54771042, -31.51148415, 28.78757286, -11.87011147, -20.97770882, -2.88580704, 15.53203964, -113.32733917, -0.54718268, 0.09914680, 0.09508094, -0.82566381, -0.00966499, 0.03626634, -0.01514803, 101.66300201, -28.09808350, 24.18999863, 0.00000000
1, 5.6600, 283, 0.28471190, 0.01632814, -0.95856649, -16.03948975, -31.86364937, -38.88811111, 28.12042236, -11.38740444, -21.00803185, -3.40932512, 14.85179424, -114.09200287, -0.54239082, 0.09235545, 0.09502511, -0.82961005, -0.02259333, 0.03656019, -0.00501174, 101.66300201, -28.09808350, 24.18999863, 0.00000000
1, 5.6800, 284, 0.25263485, 0.04253566, -0.95683056, -12.90871239, -33.41974258, -31.13331604, 28.67154694, -11.27382660, -21.03836250, -3.81354952, 14.14730167, -114.67846680, -0.53870970, 0.08579624, 0.09421915, -0.83279872, -0.00222829, 0.01879491, -0.00935921, 101.66300201, -28.09808350, 24.18999863, 0.00000000
1, 5.7000, 285, 0.21374355, 0.04071640, -0.92082793, -13.20983505, -30.75816727, -6.94608450, 28.20744133, -10.90469837, -21.31128883, -4.09701538, 13.52508736, -114.75417328, -0.53856027, 0.07997733, 0.09333874, -0.83357322, 0.02530374, 0.02638929, -0.04785398, 101.66300201, -28.09808350, 24.18999863, 0.00000000
1, 5.7200, 286, 0.18745317, 0.10823668, -0.94896048, -18.74316978, -40.27563858, 9.50850296, 27.62730980, -10.76272488, -21.73585129, -4.43735170, 12.72976303, -114.52559662, -0.54066062, 0.07237415, 0.09227008, -0.83302718, 0.03989404, -0.03617670, -0.02217606, 101.66300201, -28.09808350, 24.18999863, 0.00000000
1, 5.7400, 287, 0.18208821, 0.09543236, -0.95093024, -21.62036705, -36.66567993, 1.94379842, 27.45327187, -11.04666996, -21.79649544, -4.85794973, 12.00761795, -114.43815613, -0.54170191, 0.06503815, 0.09201577, -0.83298397, 0.03194027, -0.01646399, -0.02269340, 101.66300201, -28.09808350, 24.18999863, 0.00000000
1, 5.7600, 288, 0.18200646, 0.06760231, -0.97610068, -25.79376984, -33.80148697, -5.21035814, 27.16320801, -10.16644001, -22.37268829, -5.38209677, 11.32717037, -114.48783112, -0.54172575, 0.05762351, 0.09262892, -0.83344632, 0.02022174, 0.01981881, 0.00067912, 101.66300201, -28.09808350, 24.18999863, 0.00000000
1, 5.7800, 289, 0.17964059, 0.07021756, -1.02291751, -25.15493011, -29.97014618, -11.36795807, 27.51128387, -10.42199039, -22.19073677, -5.90863991, 10.70449734, -114.67976379, -0.54063529, 0.05073316, 0.09347275, -0.83450747, 0.01146392, 0.02655607, 0.04613643, 101.66300201, -28.09808350, 24.18999863, 0.00000000
1, 5.8000, 290, 0.15089089, 0.06938915, -1.01651013, -16.50120544, -29.97093582, -10.85775948, 26.61208344, -9.51336575, -22.76692009, -6.26716042, 10.08701897, -114.83164978, -0.53970045, 0.04463945, 0.09315492, -0.83549565, 0.02949782, 0.03495645, 0.03846993, 101.66300201, -28.09808350, 24.18999863, 0.00000000
1, 5.8200, 291, 0.13858652, 0.08561219, -0.98421490, -17.67768860, -26.16700554, -7.44375515, 26.35102463, -9.76891613, -23.67669106, -6.65387392, 9.54970646, -114.94561768, -0.53900385, 0.03896852, 0.09344318, -0.83619666, 0.03176958, 0.02505990, 0.00507098, 101.66300201, -28.09808350, 24.18999863, 0.00000000
1, 5.8400, 292, 0.11983209, 0.09959791, -0.96878254, -22.93838882, -25.85710335, -6.43199110, 26.49605560, -9.76891613, -23.07017708, -7.11562395, 9.02717495, -115.00481415, -0.53868490, 0.03300806, 0.09437507, -0.83655399, 0.04118913, 0.01887648, -0.01102713, 101.66300201, -28.09808350, 24.18999863, 0.00000000
1, 5.8600, 293, 0.10811242, 0.11538416, -0.97813290, -17.94671440, -27.17633629, -3.39205766, 25.97393799, -10.05286217, -23.91929436, -7.47319412, 8.47281551, -115.00926208, -0.53868538, 0.02725810, 0.09441814, -0.83675575, 0.04421238, 0.01020164, -0.00218198, 101.66300201, -28.09808350, 24.18999863, 0.00000000
1, 5.8800, 294, 0.11992037, 0.11667939, -0.96407229, -20.13217926, -27.69621658, -8.92633247, 25.62585831, -9.62694454, -24.49548531, -7.90786076, 7.90509272, -115.14501953, -0.53769529, 0.02115591, 0.09493851, -0.83750999, 0.02236855, 0.01553702, -0.01687767, 101.66300201, -28.09808350, 24.18999863, 0.00000000
1, 5.9000, 295, 0.09831972, 0.12631619, -0.99082869, -22.14094353, -22.18255806, -14.39345169, 25.97393799, -8.71831989, -23.79798889, -8.37246990, 7.42898941, -115.37123871, -0.53601539, 0.01566480, 0.09610275, -0.83857399, 0.03499059, 0.01419424, 0.00976971, 101.66300201, -28.09808350, 24.18999863, 0.00000000
1, 5.9200, 296, 0.09452791, 0.11358467, -0.96179694, -15.04607391, -20.25596619, -12.79065990, 25.97393799, -9.85410023, -24.49548531, -8.69551182, 6.98291206, -115.58808136, -0.53435093, 0.01105226, 0.09639046, -0.83967608, 0.03096628, 0.03384856, -0.01927860, 101.66300201, -28.09808350, 24.18999863, 0.00000000
1, 5.9400, 297, 0.06962323, 0.09863777, -0.92411351, -13.62997627, -23.76826286, -4.41730738, 26.72810745, -9.71212769, -25.04134750, -8.98177624, 6.49527884, -115.59212494, -0.53419864, 0.00612691, 0.09624701, -0.83983970, 0.04779101, 0.05376525, -0.05720262, 101.66300201, -28.09808350, 24.18999863, 0.00000000
1, 5.9600, 298, 0.09465705, 0.12735094, -0.95181715, -24.36832619, -28.73482513, -1.07168555, 25.16175270, -8.80350304, -25.46590233, -9.46072388, 5.92692327, -115.52144623, -0.53453463, -0.00035394, 0.09714451, -0.83954489, 0.01355208, 0.03185150, -0.02947508, 101.66300201, -28.09808350, 24.18999863, 0.00000000
1, 5.9800, 299, 0.07985749, 0.14406520, -0.98583215, -21.30182266, -25.18615150, -0.85313755, 25.36480141, -7.86648321, -25.58720779, -9.87987518, 5.43197632, -115.47193146, -0.53469211, -0.00599660, 0.09793500, -0.83933139, 0.01895239, 0.02329632, 0.00490475, 101.66300201, -28.09808350, 24.18999863, 0.00000000
1, 6.0000, 300, 0.04834673, 0.16618665, -0.96864855, -15.79792500, -23.48251915, 6.74013281, 25.53883934, -8.00845623, -25.49623108, -10.15727615, 4.99276781, -115.24997711, -0.53610688, -0.01071381, 0.09792312, -0.83838278, 0.04250619, 0.00744612, -0.01195949, 101.66300201, -28.09808350, 24.18999863, 0.00000000
1, 6.0200, 301, 0.04041647, 0.20767555, -0.95695835, -0.24392058, -25.89838600, 2.22202420, 24.55261803, -7.69611597, -26.52729988, -10.15205574, 4.47785902, -115.16500854, -0.53649276, -0.01454587, 0.09549349, -0.83835852, 0.04249301, -0.03169321, -0.02393473, 101.66300201, -28.09808350, 24.18999863, 0.00000000
1, 6.0400, 302, 0.04570084, 0.17092125, -0.96539283, 5.72642183, -26.75480270, -4.16853189, 24.26255226, -8.66153049, -26.01176262, -10.03357887, 3.94503021, -115.14868164, -0.53637516, -0.01791982, 0.09215524, -0.83874196, 0.02754584, 0.00388029, -0.01647966, 101.66300201, -28.09808350, 24.18999863, 0.00000000
1, 6.0600, 303, 0.04627705, 0.16357157, -1.01907933, 9.67204094, -22.14841270, 2.75796723, 23.18930817, -7.38377714, -26.34535027, -9.82834625, 3.51882076, -115.00248718, -0.53727257, -0.02020412, 0.08865000, -0.83849347, 0.01874718, 0.00863898, 0.03616985, 101.66300201, -28.09808350, 24.18999863, 0.00000000
1, 6.0800, 304, 0.03857396, 0.14923161, -1.01845026, 11.20625877, -22.10613251, 12.37391853, 22.78321648, -7.69611597, -27.16413689, -9.60265923, 3.12215114, -114.70103455, -0.53932571, -0.02228242, 0.08509464, -0.83749038, 0.01927008, 0.01914783, 0.03442859, 101.66300201, -28.09808350, 24.18999863, 0.00000000
1, 6.1000, 305, 0.00543147, 0.10139041, -0.97738832, 3.97281027, -28.68296242, 23.95223045, 22.69619751, -7.83808899, -27.40674019, -9.50230503, 2.62905288, -114.11343384, -0.54339236, -0.02584491, 0.08192445, -0.83507210, 0.04495878, 0.06414197, -0.00752534, 101.66300201, -28.09808350, 24.18999863, 0.00000000
1, 6.1200, 306, 0.00036177, 0.13353789, -0.96490639, 0.53512472, -32.43672943, 35.68537903, 22.20308685, -8.09364033, -27.49772453, -9.46870518, 2.11231923, -113.33010101, -0.54883587, -0.03000132, 0.07903948, -0.83164412, 0.04086436, 0.03106290, -0.02058939, 101.66300201, -28.09808350, 24.18999863, 0.00000000
1, 6.1400, 307, 0.00503253, 0.15138994, -0.97943789, -0.08711816, -26.41468811, 27.43604279, 22.37712479, -8.17882347, -28.07390785, -9.43927956, 1.68040252, -112.70310211, -0.55316222, -0.03342068, 0.07658451, -0.82887250, 0.02802860, 0.01293688, -0.00641207, 101.66300201, -28.09808350, 24.18999863, 0.00000000
1, 6.1600, 308, -0.01306166, 0.14498401, -0.99935454, 11.39708519, -24.39287376, 26.03586388, 22.17407799, -8.80350304, -27.77065086, -9.17986488, 1.29001546, -112.12032318, -0.55724394, -0.03536687, 0.07265045, -0.82640815, 0.03877965, 0.01720803, 0.01293268, 101.66300201, -28.09808350, 24.18999863, 0.00000000
1, 6.1800, 309, -0.01197775, 0.15305117, -0.97399986, 17.13439178, -22.63525772, 16.92383575, 21.59394836, -8.74671364, -28.19521332, -8.85405350, 0.88487816, -111.74974060, -0.55980539, -0.03692884, 0.06821560, -0.82498538, 0.03117410, 0.00332977, -0.01350777, 101.66300201, -28.09808350, 24.18999863, 0.00000000
1, 6.2000, 310, -0.04128267, 0.17894256, -0.93943137, 4.16148233, -28.83858871, 6.09785891, 20.98481178, -8.94547558, -28.71074486, -8.78437424, 0.32337624, -111.54196930, -0.56102693, -0.04075162, 0.06490099, -0.82424271, 0.05206795, -0.02603859, -0.04874776, 101.66300201, -28.09808350, 24.18999863, 0.00000000
1, 6.2200, 311, -0.04689096, 0.12359209, -0.96006811, -10.10171509, -35.95745850, 10.45571613, 20.54971313, -8.66153049, -28.83205032, -9.00211430, -0.35754704, -111.21627045, -0.56290329, -0.04689460, 0.06300177, -0.82278281, 0.04663687, 0.03051794, -0.02798055, 101.66300201, -28.09808350, 24.18999863, 0.00000000
1, 6.2400, 312, -0.04011870, 0.15434909, -1.01654410, -15.38767052, -37.21125793, 30.47951889, 19.21541023, -8.80350304, -29.37791061, -9.30292225, -0.99951881, -110.49212646, -0.56757331, -0.05336898, 0.06166921, -0.81927371, 0.02830722, 0.00497370, 0.02939315, 101.66300201, -28.09808350, 24.18999863, 0.00000000
1, 6.2600, 313, -0.05743627, 0.18424617, -1.04621625, 6.73680782, -37.29020309, 24.42819023, 18.98335838, -8.03685093, -29.98442459, -9.14898205, -1.66189945, -109.91020203, -0.57138211, -0.05762728, 0.05698786, -0.81667250, 0.03430247, -0.02304686, 0.05957001, 101.66300201, -28.09808350, 24.18999863, 0.00000000
1, 6.2800, 314, -0.06212563, 0.12574087, -0.96910793, 20.93316841, -38.78022766, 7.01512766, 18.46124077, -8.68992519, -30.62126160, -8.76101017, -2.40913844, -109.68531799, -0.57270235, -0.06110852, 0.05036258, -0.81592983, 0.02673003, 0.02952362, -0.01812373, 101.66300201, -28.09808350, 24.18999863, 0.00000000
1, 6.3000, 315, -0.08710229, 0.15471897, -0.98218191, 6.73143053, -36.54251862, -5.98198986, 18.11316109, -9.03065872, -30.56060791, -8.62628078, -3.13912439, -109.72081757, -0.57204080, -0.06560621, 0.04575735, -0.81631583, 0.03849105, -0.00393680, -0.00518372, 101.66300201, -28.09808350, 24.18999863, 0.00000000
1, 6.3200, 316, -0.10615156, 0.14318694, -1.02926767, 16.05171967, -25.41617203, -23.95345497, 16.63382721, -8.88868713, -30.89419556, -8.25892258, -3.71799970, -110.13318634, -0.56892198, -0.06773896, 0.04047657, -0.81859690, 0.04635004, 0.00405023, 0.04198027, 101.66300201, -28.09808350, 24.18999863, 0.00000000
1, 6.3400, 317, -0.10284729, 0.03139705, -1.01065636, 23.69979858, -37.43481064, -5.94945526, 16.11170959, -8.80350304, -31.50070953, -7.78866959, -4.48901415, -110.10845184, -0.56885988, -0.07090126, 0.03324676, -0.81869781, 0.03167148, 0.10767843, 0.02294373, 101.66300201, -28.09808350, 24.18999863, 0.00000000
1, 6.3600, 318, -0.12476619, 0.11767166, -0.97203755, 25.95207214, -46.16993332, 13.65131378, 15.99568272, -10.28001881, -31.28842735, -7.30625677, -5.36800909, -109.70984650, -0.57140940, -0.07485072, 0.02514167, -0.81685776, 0.03886107, 0.01319382, -0.01562391, 101.66300201, -28.09808350, 24.18999863, 0.00000000
1, 6.3800, 319, -0.12678879, 0.10604609, -0.98073369, 16.57462883, -43.71181488, 13.22502708, 14.95144653, -9.57015419, -31.37940216, -7.04600906, -6.19723845, -109.36218262, -0.57348073, -0.07949598, 0.01887457, -0.81513435, 0.02591516, 0.01749705, -0.00645796, 101.66300201, -28.09808350, 24.18999863, 0.00000000
1, 6.4000, 320, -0.10934387, 0.08579496, -1.06843305, 0.77096897, -35.32794952, 6.54161644, 14.74840069, -9.51336575, -31.25809669, -7.05932236, -6.86470270, -109.14929199, -0.57450116, -0.08431556, 0.01544040, -0.81400293, -0.00485840, 0.03601822, 0.08247621, 101.66300201, -28.09808350, 24.18999863, 0.00000000
1, 6.4200, 321, -0.10734177, 0.07081512, -1.12480223, 0.61629188, -20.91972542, 6.20614243, 13.32708073, -9.22942066, -31.77363586, -7.07395124, -7.23783445, -109.01308441, -0.57517833, -0.08704123, 0.01355055, -0.81327134, -0.01589816, 0.05132350, 0.13997167, 101.66300201, -28.09808350, 24.18999863, 0.00000000
1, 6.4400, 322, -0.15523921, 0.11691569, -1.06449914, 7.59427071, -6.74399376, 8.76138210, 13.15304184, -10.73433113, -31.98591614, -6.94076967, -7.33836985, -108.82186127, -0.57656002, -0.08710235, 0.01194982, -0.81231099, 0.02798321, 0.00432846, 0.08006765, 101.66300201, -28.09808350, 24.18999863, 0.00000000
1, 6.4600, 323, -0.17262971, 0.12778351, -0.98710746, 5.45050430, -1.41176558, 9.73169136, 12.94999599, -9.22942066, -31.77363586, -6.86509895, -7.34542942, -108.62049103, -0.57803869, -0.08679122, 0.01122500, -0.81130308, 0.04488432, -0.00883159, 0.00245959, 101.66300201, -28.09808350, 24.18999863, 0.00000000
1, 6.4800, 324, -0.18360405, 0.08340279, -0.95295024, -1.75269353, -6.22637081, 15.33351707, 13.47211361, -9.03065872, -32.41047287, -6.96020746, -7.43957615, -108.33510590, -0.57991385, -0.08796190, 0.01119929, -0.80983788, 0.05503631, 0.03568636, -0.03157383, 101.66300201, -28.09808350, 24.18999863, 0.00000000
1, 6.5000, 325, -0.18722412, 0.14220627, -0.98620361, -4.62742758, -3.64164448, 12.63870907, 12.71794319, -9.37139320, -32.50145340, -7.08143330, -7.48162937, -108.09290314, -0.58149850, -0.08889563, 0.01165297, -0.80859220, 0.05737310, -0.02087411, 0.00212187, 101.66300201, -28.09808350, 24.18999863, 0.00000000
1, 6.5200, 326, -0.17104265, 0.13857551, -0.99967098, -1.67907333, 0.59273899, -4.50784922, 12.74695015, -10.05286217, -32.31949615, -7.11849594, -7.46650219, -108.26210785, -0.58028680, -0.08895979, 0.01212349, -0.80944830, 0.04070621, -0.01606263, 0.01579950, 101.66300201, -28.09808350, 24.18999863, 0.00000000
1, 6.5400, 327, -0.17416963, 0.07393903, -1.01207173, -1.08605802, 0.70084316, 0.60403770, 13.00800896, -10.02446747, -31.83428764, -7.14178467, -7.46022224, -108.22994995, -0.58050066, -0.08903706, 0.01229517, -0.80928379, 0.04454190, 0.04912482, 0.02817542, 101.66300201, -28.09808350, 24.18999863, 0.00000000
1, 6.5600, 328, -0.16327594, 0.09865186, -0.96894926, 2.17223144, -4.44611502, 10.29330349, 12.71794319, -9.93928432, -32.10721588, -7.12982464, -7.52545118, -108.01168823, -0.58199996, -0.08945689, 0.01170616, -0.80816865, 0.03290305, 0.02450917, -0.01483641, 101.66300201, -28.09808350, 24.18999863, 0.00000000
1, 6.5800, 329, -0.16751468, 0.12636277, -0.95150834, -1.23911881, -2.43659592, 6.88575697, 12.74695015, -8.71831989, -32.44080353, -7.22294283, -7.55474186, -107.95551300, -0.58230031, -0.09014110, 0.01216825, -0.80786937, 0.03609152, -0.00240782, -0.03203765, 101.66300201, -28.09808350, 24.18999863, 0.00000000
1, 6.6000, 330, -0.15688568, 0.13657358, -0.96060997, 4.70130491, 0.48837048, -1.07501149, 12.34085846, -9.48497105, -31.89494133, -7.11377907, -7.54150629, -107.99390411, -0.58212548, -0.08948975, 0.01149664, -0.80807763, 0.02540038, -0.01252771, -0.02291634, 101.66300201, -28.09808350, 24.18999863, 0.00000000
1, 6.6200, 331, -0.14632997, 0.13325256, -0.97855258, 10.86853027, 9.27856731, -11.84212780, 12.28284454, -10.33680725, -32.28917313, -6.86741114, -7.37265491, -108.28710175, -0.58037442, -0.08702650, 0.01084941, -0.80961359, 0.01621920, -0.01248163, -0.00556319, 101.66300201, -28.09808350, 24.18999863, 0.00000000
1, 6.6400, 332, -0.16664714, 0.12632525, -1.00302136, 17.02923584, 16.74477005, -16.48403358, 12.74695015, -10.08125687, -31.74331284, -6.47449255, -7.07922268, -108.65838623, -0.57825416, -0.08294188, 0.00984405, -0.81157005, 0.04077950, -0.01087109, 0.01771785, 101.66300201, -28.09808350, 24.18999863, 0.00000000
1, 6.6600, 333, -0.16352539, 0.07841495, -0.99816376, 18.39378357, 14.23710823, -13.47650433, 12.94999599, -9.22942066, -32.01623917, -6.06615543, -6.82874060, -108.93483734, -0.57675737, -0.07909481, 0.00841907, -0.81303394, 0.04250985, 0.03004807, 0.01145872, 101.66300201, -28.09808350, 24.18999863, 0.00000000
1, 6.6800, 334, -0.15773937, 0.01516867, -0.98624855, 17.50348282, 4.40995693, 14.15902328, 12.86297607, -9.57015419, -32.86535645, -5.75037432, -6.72673512, -108.66539001, -0.57895017, -0.07679998, 0.00651592, -0.81171185, 0.04011573, 0.08679872, -0.00155988, 101.66300201, -28.09808350, 24.18999863, 0.00000000
1, 6.7000, 335, -0.14595857, 0.07308684, -0.96927691, 19.55013275, -7.86088085, 26.92804337, 12.83396912, -9.39978790, -31.44005585, -5.42935467, -6.83837366, -108.10765076, -0.58303589, -0.07598238, 0.00330353, -0.80887884, 0.02809333, 0.02361389, -0.01903201, 101.66300201, -28.09808350, 24.18999863, 0.00000000
1, 6.7200, 336, -0.15004312, 0.10671066, -0.97655559, 13.20096588, -6.13380289, 21.97340393, 11.70271397, -9.57015419, -31.65233803, -5.25137758, -6.89759207, -107.71731567, -0.58586776, -0.07549860, 0.00148641, -0.80688089, 0.03010683, -0.01477296, -0.01195941, 101.66300201, -28.09808350, 24.18999863, 0.00000000
1, 6.7400, 337, -0.12851551, 0.09701005, -0.99940890, 10.03154755, 11.76296139, 13.09807110, 11.96377277, -9.48497105, -31.59168434, -5.05693722, -6.60623264, -107.48293304, -0.58782303, -0.07246370, 0.00146991, -0.80573636, 0.01017784, -0.00740660, 0.01048767, 101.66300201, -28.09808350, 24.18999863, 0.00000000
1, 6.7600, 338, -0.12748797, 0.03985338, -1.01314223, 21.41450691, 27.46715927, 14.38161182, 12.63092327, -9.76891613, -32.38014984, -4.64997768, -6.03351641, -107.22946167, -0.59018373, -0.06636493, 0.00141961, -0.80453521, 0.01733193, 0.04437221, 0.02280774, 101.66300201, -28.09808350, 24.18999863, 0.00000000
1, 6.7800, 339, -0.12293778, 0.06288685, -0.99154103, 28.85694885, 30.63280106, 19.67477036, 12.39887142, -10.10965061, -31.59168434, -4.10041523, -5.38871241, -106.89651489, -0.59315866, -0.05902063, 0.00072949, -0.80291903, 0.02328743, 0.01337826, -0.00054753, 101.66300201, -28.09808350, 24.18999863, 0.00000000
1, 6.8000, 340, -0.11293560, 0.05872966, -0.97519332, 38.45325851, 33.76110077, 18.01559258, 12.86297607, -10.13804626, -31.22777367, -3.34318399, -4.66177702, -106.57872009, -0.59607446, -0.05001320, -0.00093568, -0.80136955, 0.02473506, 0.00632775, -0.01877270, 101.66300201, -28.09808350, 24.18999863, 0.00000000
1, 6.8200, 341, -0.10124388, 0.02100164, -0.99263275, 51.39543152, 43.75592804, 23.49474907, 13.00800896, -10.90469837, -31.22777367, -2.33055687, -3.75996280, -106.15389252, -0.59976137, -0.03843151, -0.00345471, -0.79924816, 0.02779953, 0.02881026, -0.00340463, 101.66300201, -28.09808350, 24.18999863, 0.00000000
1, 6.8400, 342, -0.10254034, 0.01355156, -0.98042798, 57.46972656, 40.49227524, 25.72572327, 13.70416641, -11.16024876, -31.10646820, -1.22295344, -2.94415021, -105.67300415, -0.60363960, -0.02691614, -0.00701614, -0.79677200, 0.04439058, 0.01710901, -0.01739089, 101.66300201, -28.09808350, 24.18999863, 0.00000000
1, 6.8600, 343, -0.08931618, 0.01406481, -1.00050271, 47.27615738, 32.74777603, 17.38623238, 13.53012657, -11.64295578, -30.92451859, -0.29828361, -2.29693651, -105.33467102, -0.60627675, -0.01751511, -0.01008569, -0.79499692, 0.04394291, -0.00097100, 0.00163052, 101.66300201, -28.09808350, 24.18999863, 0.00000000
1, 6.8800, 344, -0.07661118, -0.00148007, -1.01157546, 45.30419922, 23.85097694, 22.95295906, 13.67515945, -12.49479198, -31.16712189, 0.58220756, -1.82408249, -104.87668610, -0.60959411, -0.00952068, -0.01373033, -0.79253763, 0.04083658, -0.00103593, 0.01222816, 101.66300201, -28.09808350, 24.18999863, 0.00000000
1, 6.9000, 345, -0.05034588, -0.02461780, -1.00864744, 39.85714340, 22.20729828, 28.69543839, 13.70416641, -12.69355297, -30.46963310, 1.36760414, -1.37631214, -104.28183746, -0.61374694, -0.00215791, -0.01679218, -0.78932124, 0.02217569, 0.00757685, 0.00919682, 101.66300201, -28.09808350, 24.18999863, 0.00000000
1, 6.9200, 346, -0.04053001, -0.07617141, -1.04487610, 52.31685638, 30.39323997, 43.13942337, 13.67515945, -12.80713081, -30.34833527, 2.41171527, -0.79254252, -103.38399506, -0.61985099, 0.00761916, -0.02079942, -0.78440696, 0.02152956, 0.04371045, 0.04559758, 101.66300201, -28.09808350, 24.18999863, 0.00000000
1, 6.9400, 347, -0.04896854, -0.07524212, -1.01343715, 64.93270874, 35.61585236, 56.62186432, 13.50112057, -13.94291210, -30.10572243, 3.71000171, -0.13409640, -102.21642303, -0.62755179, 0.01941334, -0.02592912, -0.77790082, 0.04072792, 0.02219387, 0.01489954, 101.66300201, -28.09808350, 24.18999863, 0.00000000
1, 6.9600, 348, -0.04149462, -0.09443270, -0.97444648, 56.29140091, 38.55309677, 46.51155853, 14.22628403, -15.93052959, -29.83279610, 4.81140709, 0.56214523, -101.25488281, -0.63363475, 0.03041591, -0.02933874, -0.77247739, 0.04533052, 0.01925359, -0.02270005, 101.66300201, -28.09808350, 24.18999863, 0.00000000
1, 6.9800, 349, -0.01195759, -0.11315646, -1.00355828, 36.72065353, 36.33218384, 32.25603104, 14.45833683, -15.84534550, -29.43856430, 5.55495739, 1.23891056, -100.55120087, -0.63790464, 0.03927245, -0.03036618, -0.76851362, 0.02748203, 0.02279611, 0.00777948, 101.66300201, -28.09808350, 24.18999863, 0.00000000
1, 7.0000, 350, 0.01514500, -0.14369226, -1.02789629, 42.31297302, 41.01277542, 40.08427048, 14.13926315, -15.90213394, -29.62051392, 6.43533754, 1.96876001, -99.65814972, -0.64322138, 0.04930886, -0.03181872, -0.76342809, 0.01291194, 0.03959358, 0.03373782, 101.66300201, -28.09808350, 24.18999863, 0.00000000
1, 7.0200, 351, 0.03198591, -0.11487757, -1.01377439, 44.91714859, 39.86712265, 41.54064560, 14.66138268, -17.17988777, -28.68042183, 7.36124229, 2.66553378, -98.75328064, -0.64843196, 0.05940222, -0.03359864, -0.75820738, 0.00843452, -0.00528044, 0.02185569, 101.66300201, -28.09808350, 24.18999863, 0.00000000
1, 7.0400, 352, 0.04972668, -0.14294733, -1.00934577, 43.06653595, 42.67615128, 36.87857056, 15.12548733, -18.00333023, -28.43781662, 8.27600002, 3.42217898, -97.90787506, -0.65303701, 0.06982411, -0.03483995, -0.75329518, 0.00313197, 0.00724384, 0.02002065, 101.66300201, -28.09808350, 24.18999863, 0.00000000
1, 7.0600, 353, 0.04468970, -0.18549390, -0.99233580, 50.12147522, 50.08603287, 31.19021606, 14.98045444, -18.23048401, -28.04358482, 9.32627201, 4.31855345, -97.14694214, -0.65670425, 0.08191017, -0.03606657, -0.74881876, 0.02273346, 0.03288668, 0.00637030, 101.66300201, -28.09808350, 24.18999863, 0.00000000
1, 7.0800, 354, 0.05366944, -0.21058585, -0.94658703, 42.23391342, 49.00387192, 21.96456146, 15.32853317, -18.79837608, -28.31651115, 10.19407082, 5.20422745, -96.56818390, -0.65911227, 0.09281320, -0.03615727, -0.74541891, 0.02949030, 0.04104472, -0.03540610, 101.66300201, -28.09808350, 24.18999863, 0.00000000
1, 7.1000, 355, 0.06692614, -0.17812607, -0.96509844, 28.61337280, 44.94037628, 14.99377632, 15.73462486, -19.76379013, -27.31576538, 10.81492996, 6.04440832, -96.10504150, -0.66085362, 0.10194430, -0.03490698, -0.74273920, 0.03083262, -0.00326999, -0.01343036, 101.66300201, -28.09808350, 24.18999863, 0.00000000
1, 7.1200, 356, 0.07093007, -0.16384731, -0.99269468, 31.36011314, 50.63401794, 13.42220497, 16.11170959, -19.76379013, -27.16413689, 11.48714638, 6.99076605, -95.66550446, -0.66216230, 0.11201803, -0.03331525, -0.74019134, 0.04250525, -0.02827374, 0.01791467, 101.66300201, -28.09808350, 24.18999863, 0.00000000
1, 7.1400, 357, 0.12078639, -0.20833512, -1.01568544, 31.79329109, 49.02832413, 11.30974388, 16.16972351, -19.99094582, -27.04283905, 12.19439030, 7.90832806, -95.22639465, -0.66331345, 0.12207803, -0.03204090, -0.73762155, 0.00884688, 0.00515994, 0.04517510, 101.66300201, -28.09808350, 24.18999863, 0.00000000
1, 7.1600, 358, 0.14932086, -0.23321396, -1.02771771, 45.09888077, 54.86861801, 16.67165565, 16.69184113, -19.70700073, -27.16413689, 13.18787670, 8.90827370, -94.66130829, -0.66469252, 0.13431890, -0.03189047, -0.73425150, -0.00318041, 0.01620611, 0.06256876, 101.66300201, -28.09808350, 24.18999863, 0.00000000
1, 7.1800, 359, 0.14704311, -0.26695713, -0.97653502, 46.14723206, 55.10348129, 9.01411438, 17.30097771, -20.38846970, -25.76915932, 14.16720772, 9.93884563, -94.24403381, -0.66487974, 0.14658862, -0.03153534, -0.73174608, 0.01669157, 0.03342221, 0.01809151, 101.66300201, -28.09808350, 24.18999863, 0.00000000
1, 7.2000, 360, 0.14919738, -0.28191841, -0.93726838, 33.11109543, 49.04848480, -1.66533256, 17.99713516, -21.09833336, -25.25362015, 14.84562111, 10.89234352, -94.03891754, -0.66401488, 0.15653118, -0.02992405, -0.73053873, 0.03172920, 0.03496451, -0.01470529, 101.66300201, -28.09808350, 24.18999863, 0.00000000
1, 7.2200, 361, 0.15228660, -0.25513583, -0.93688643, 16.74153519, 43.58097458, -14.49051571, 18.60627365, -20.92796516, -25.16264534, 15.13432980, 11.81822300, -94.13318634, -0.66170228, 0.16394107, -0.02638874, -0.73114777, 0.04448063, 0.00082392, -0.00999810, 101.66300201, -28.09808350, 24.18999863, 0.00000000
1, 7.2400, 362, 0.18712440, -0.23669845, -0.94262463, -3.91888833, 44.02133942, -37.29216003, 20.28865433, -21.60943413, -25.13232231, 14.90581894, 12.88121986, -94.67179108, -0.65703368, 0.16913894, -0.01940228, -0.73438567, 0.02633409, -0.01750154, -0.00066515, 101.66300201, -28.09808350, 24.18999863, 0.00000000
1, 7.2600, 363, 0.21428637, -0.22195096, -0.96017814, -27.77297211, 53.71947479, -62.48660660, 20.43368721, -21.04154205, -24.92004013, 14.10837078, 14.25467587, -95.63607025, -0.64996421, 0.17307231, -0.00761531, -0.73995578, 0.01992845, -0.02209077, 0.01914718, 101.66300201, -28.09808350, 24.18999863, 0.00000000
1, 7.2800, 364, 0.23821113, -0.20128797, -0.96689516, -32.32263184, 70.57032776, -63.97491837, 21.62295341, -21.06993866, -25.04134750, 13.21177006, 15.94475269, -96.58635712, -0.64260316, 0.17865504, 0.00661083, -0.74505031, 0.02185638, -0.02676255, 0.02865817, 101.66300201, -28.09808350, 24.18999863, 0.00000000
1, 7.3000, 365, 0.21430241, -0.22847772, -0.98607111, -31.19334984, 73.56237030, -55.03022385, 22.34811974, -20.13291931, -25.10199165, 12.37873650, 17.60199547, -97.33208466, -0.63647991, 0.18458371, 0.02045932, -0.74860114, 0.07478409, 0.01675430, 0.05250958, 101.66300201, -28.09808350, 24.18999863, 0.00000000
1, 7.3200, 366, 0.20740470, -0.24374335, -0.96469378, -25.08748245, 58.05673599, -19.73655319, 23.07328224, -19.56502724, -25.07166862, 11.85364532, 18.78038597, -97.45806122, -0.63464123, 0.18917161, 0.03047784, -0.74867600, 0.10578047, 0.04501713, 0.03604334, 101.66300201, -28.09808350, 24.18999863, 0.00000000
1, 7.3400, 367, 0.25860870, -0.18887822, -0.94148213, -10.56148434, 37.76049805, 3.31927180, 23.68241882, -19.53663445, -24.95036316, 11.72598934, 19.48506546, -97.23890686, -0.63514531, 0.19286147, 0.03573822, -0.74707276, 0.06972033, -0.00373742, 0.01677153, 101.66300201, -28.09808350, 24.18999863, 0.00000000
1, 7.3600, 368, 0.30660677, -0.15484503, -0.94578326, -8.25199604, 27.90292740, -5.63410139, 24.14652443, -19.22429466, -25.43557930, 11.56022644, 20.06282806, -97.23780060, -0.63448608, 0.19559248, 0.04015297, -0.74669856, 0.03153739, -0.03519007, 0.02407911, 101.66300201, -28.09808350, 24.18999863, 0.00000000
1, 7.3800, 369, 0.33475068, -0.16145673, -0.95408654, -6.61051369, 34.11746597, -5.39128113, 24.55261803, -18.91195297, -24.92004013, 11.42679501, 20.77234650, -97.24571228, -0.63348490, 0.19933397, 0.04509892, -0.74627674, 0.01394911, -0.02514187, 0.03562071, 101.66300201, -28.09808350, 24.18999863, 0.00000000
1, 7.4000, 370, 0.33901381, -0.15723956, -0.95624721, -1.96806836, 40.58628082, -20.56575394, 25.27778053, -18.79837608, -24.73809052, 11.29339886, 21.65217590, -97.51441956, -0.63047951, 0.20425904, 0.05055746, -0.74713975, 0.02266919, -0.02649747, 0.04223912, 101.66300201, -28.09808350, 24.18999863, 0.00000000
1, 7.4200, 371, 0.31053019, -0.20682317, -0.92855293, -4.64526320, 38.75511932, -20.32415771, 25.77089119, -18.42924690, -24.22255135, 11.08557796, 22.47998047, -97.79931641, -0.62756902, 0.20847398, 0.05614715, -0.74802619, 0.06542592, 0.02665725, 0.01960668, 101.66300201, -28.09808350, 24.18999863, 0.00000000
1, 7.4400, 372, 0.34988090, -0.21157327, -0.92402977, -4.82062912, 32.49267197, -19.61870193, 26.14797592, -18.37245750, -23.88897133, 10.87433243, 23.19003296, -98.08834076, -0.62482882, 0.21195136, 0.06105401, -0.74895799, 0.03825619, 0.03605902, 0.01930098, 101.66300201, -28.09808350, 24.18999863, 0.00000000
1, 7.4600, 373, 0.38529402, -0.22870444, -0.94605535, -5.78585672, 30.69693565, -20.06426430, 26.78612137, -17.63419914, -23.49473953, 10.65891171, 23.85887718, -98.37808228, -0.62215477, 0.21516761, 0.06573084, -0.74987060, 0.01399249, 0.05778265, 0.04530769, 101.66300201, -28.09808350, 24.18999863, 0.00000000
1, 7.4800, 374, 0.40331149, -0.22390009, -0.96696126, 6.92461205, 26.33713341, -5.78530788, 27.33724594, -17.43543816, -23.19148254, 10.80273819, 24.40933418, -98.40923309, -0.62069231, 0.21944460, 0.06785798, -0.74965358, 0.00553035, 0.05449989, 0.07021938, 101.66300201, -28.09808350, 24.18999863, 0.00000000
1, 7.5000, 375, 0.38216946, -0.23654030, -0.91926664, 20.13997078, 30.25523567, 2.12639070, 27.88837051, -18.34406471, -22.37268829, 11.30154610, 24.97316170, -98.23016357, -0.61985934, 0.22559151, 0.06815031, -0.74849075, 0.03591546, 0.06291924, 0.02761070, 101.66300201, -28.09808350, 24.18999863, 0.00000000
1, 7.5200, 376, 0.34348074, -0.18335943, -0.88075799, 31.59080887, 11.14841557, 1.35960281, 28.06240845, -17.71938324, -21.70552063, 11.94184685, 25.17584610, -98.20070648, -0.61839586, 0.23030692, 0.06518035, -0.74852979, 0.08072833, 0.00061247, -0.00617082, 101.66300201, -28.09808350, 24.18999863, 0.00000000
1, 7.5400, 377, 0.38472575, -0.21421768, -0.87494290, 27.43606758, 3.54373765, -14.06906891, 28.75856590, -18.00333023, -20.94737816, 12.34352589, 25.32491684, -98.50790405, -0.61528742, 0.23357624, 0.06277964, -0.75028151, 0.04147843, 0.02341099, -0.00933074, 101.66300201, -28.09808350, 24.18999863, 0.00000000
1, 7.5600, 378, 0.41643518, -0.24792646, -0.90247977, 16.61326408, 19.53562355, -28.00793648, 29.22267151, -17.60580635, -20.43184853, 12.45724583, 25.83259773, -99.01803589, -0.61071932, 0.23765782, 0.06386162, -0.75263703, 0.01498627, 0.05411882, 0.02139602, 101.66300201, -28.09808350, 24.18999863, 0.00000000
1, 7.5800, 379, 0.39388657, -0.23495281, -0.89520729, 13.94536209, 19.74454308, -22.92389679, 29.01962471, -17.83296204, -20.18924332, 12.53930283, 26.31464386, -99.43220520, -0.60687327, 0.24136302, 0.06517470, -0.75445414, 0.04583145, 0.04027014, 0.01842778, 101.66300201, -28.09808350, 24.18999863, 0.00000000
1, 7.6000, 380, 0.41029975, -0.19236258, -0.88062936, 2.84515047, 20.67406654, -17.90371323, 29.22267151, -17.94654083, -19.00653839, 12.45592499, 26.80123901, -99.72252655, -0.60416770, 0.24415971, 0.06784239, -0.75548983, 0.03672604, -0.00140875, 0.00735035, 101.66300201, -28.09808350, 24.18999863, 0.00000000
1, 7.6200, 381, 0.42728412, -0.21047297, -0.88197994, -6.63334703, 25.68829155, -16.83283615, 29.88982201, -17.74777985, -18.12709808, 12.18969822, 27.38258553, -99.99623871, -0.60176677, 0.24659660, 0.07226650, -0.75620401, 0.02800759, 0.02013079, 0.01222599, 101.66300201, -28.09808350, 24.18999863, 0.00000000
1, 7.6400, 382, 0.46604303, -0.17371014, -0.91688758, -3.28073788, 26.65398216, -23.13163376, 30.52796555, -17.74777985, -18.00579262, 11.95529747, 28.00454330, -100.39099884, -0.59841305, 0.24955784, 0.07642663, -0.75748372, -0.00137044, -0.01126673, 0.05094600, 101.66300201, -28.09808350, 24.18999863, 0.00000000
1, 7.6600, 383, 0.46386185, -0.13145386, -0.90530384, 7.27977228, 29.32915497, -31.29911232, 31.07909012, -17.57741165, -17.91481781, 11.83865070, 28.73194122, -100.95891571, -0.59343165, 0.25394806, 0.07998207, -0.75957364, 0.01091357, -0.04990339, 0.04409072, 101.66300201, -28.09808350, 24.18999863, 0.00000000
1, 7.6800, 384, 0.45989424, -0.16452521, -0.87744206, 13.27786446, 57.53315735, -40.97142029, 31.77524757, -16.27126312, -16.36820984, 11.78021431, 30.05099487, -101.62328339, -0.58642656, 0.26250204, 0.08612806, -0.76143181, 0.03016566, -0.01376476, 0.02420146, 101.66300201, -28.09808350, 24.18999863, 0.00000000
